File: output/09%/voigt/dataset/fitting.csv
111thetas,111intensity,200thetas,200intensity,220thetas,220intensity,311thetas,311intensity,222thetas,222intensity
18.48,0.298094,21.5,0.402385,31.5,6.75724,37.0,2.02296,50.0,1.41208
18.49,0.303218,21.51,0.408989,31.51,6.91362,37.01,2.05804,50.01,1.44357
18.5,0.308476,21.52,0.415758,31.52,7.07548,37.02,2.09404,50.02,1.47611
18.51,0.313872,21.53,0.422695,31.53,7.24308,37.03,2.131,50.03,1.50976
18.52,0.319411,21.54,0.429808,31.54,7.4167,37.04,2.16894,50.04,1.54458
18.53,0.325097,21.55,0.437102,31.55,7.59664,37.05,2.2079,50.05,1.58061
18.54,0.330937,21.56,0.444583,31.56,7.78319,37.06,2.24792,50.06,1.61792
18.55,0.336935,21.57,0.452257,31.57,7.9767,37.07,2.28904,50.07,1.65656
18.56,0.343098,21.58,0.460132,31.58,8.1775,37.08,2.33129,50.08,1.6966
18.57,0.349431,21.59,0.468214,31.59,8.38597,37.09,2.37473,50.09,1.73811
18.58,0.355942,21.6,0.476511,31.6,8.60251,37.1,2.41939,50.1,1.78116
18.59,0.362636,21.61,0.485031,31.61,8.82753,37.11,2.46532,50.11,1.82582
18.6,0.36952,21.62,0.49378,31.62,9.06148,37.12,2.51256,50.12,1.87218
18.61,0.376602,21.63,0.502769,31.63,9.30484,37.13,2.56118,50.13,1.92032
18.62,0.38389,21.64,0.512005,31.64,9.55813,37.14,2.61123,50.14,1.97035
18.63,0.391392,21.65,0.521498,31.65,9.82189,37.15,2.66275,50.15,2.02235
18.64,0.399115,21.66,0.531257,31.66,10.0967,37.16,2.71581,50.16,2.07643
18.65,0.407069,21.67,0.541292,31.67,10.3832,37.17,2.77047,50.17,2.1327
18.66,0.415263,21.68,0.551615,31.68,10.682,37.18,2.8268,50.18,2.19129
18.67,0.423707,21.69,0.562235,31.69,10.9939,37.19,2.88486,50.19,2.25232
18.68,0.432411,21.7,0.573164,31.7,11.3197,37.2,2.94472,50.2,2.31593
18.69,0.441386,21.71,0.584416,31.71,11.6601,37.21,3.00647,50.21,2.38226
18.7,0.450643,21.72,0.596002,31.72,12.016,37.22,3.07018,50.22,2.45148
18.71,0.460195,21.73,0.607935,31.73,12.3885,37.23,3.13593,50.23,2.52376
18.72,0.470053,21.74,0.62023,31.74,12.7786,37.24,3.20381,50.24,2.59927
18.73,0.480231,21.75,0.632902,31.75,13.1873,37.25,3.27392,50.25,2.67821
18.74,0.490743,21.76,0.645966,31.76,13.6159,37.26,3.34636,50.26,2.76079
18.75,0.501604,21.77,0.659438,31.77,14.0657,37.27,3.42122,50.27,2.84723
18.76,0.512829,21.78,0.673336,31.78,14.5382,37.28,3.49862,50.28,2.93779
18.77,0.524436,21.79,0.687677,31.79,15.0347,37.29,3.57867,50.29,3.03273
18.78,0.53644,21.8,0.702481,31.8,15.5571,37.3,3.6615,50.3,3.13233
18.79,0.548861,21.81,0.717768,31.81,16.1071,37.31,3.74723,50.31,3.2369
18.8,0.561719,21.82,0.73356,31.82,16.6868,37.32,3.83601,50.32,3.34678
18.81,0.575033,21.83,0.749877,31.83,17.2982,37.33,3.92797,50.33,3.46232
18.82,0.588826,21.84,0.766745,31.84,17.9438,37.34,4.02328,50.34,3.58394
18.83,0.603122,21.85,0.784188,31.85,18.626,37.35,4.12209,50.35,3.71205
18.84,0.617943,21.86,0.802232,31.86,19.3479,37.36,4.22458,50.36,3.84712
18.85,0.633318,21.87,0.820906,31.87,20.1123,37.37,4.33094,50.37,3.98968
18.86,0.649273,21.88,0.840239,31.88,20.9229,37.38,4.44136,50.38,4.14027
18.87,0.665839,21.89,0.860262,31.89,21.7833,37.39,4.55604,50.39,4.29951
18.88,0.683046,21.9,0.881009,31.9,22.6976,37.4,4.67523,50.4,4.46808
18.89,0.700928,21.91,0.902515,31.91,23.6706,37.41,4.79914,50.41,4.64671
18.9,0.719521,21.92,0.924817,31.92,24.7072,37.42,4.92803,50.42,4.83621
18.91,0.738864,21.93,0.947955,31.93,25.8132,37.43,5.06218,50.43,5.03748
18.92,0.758997,21.94,0.971972,31.94,26.9948,37.44,5.20187,50.44,5.25152
18.93,0.779963,21.95,0.996912,31.95,28.2591,37.45,5.34741,50.45,5.47941
18.94,0.801809,21.96,1.02282,31.96,29.6138,37.46,5.49914,50.46,5.72237
18.95,0.824586,21.97,1.04976,31.97,31.0679,37.47,5.6574,50.47,5.98175
18.96,0.848346,21.98,1.07777,31.98,32.6313,37.48,5.82258,50.48,6.25906
18.97,0.873147,21.99,1.10691,31.99,34.315,37.49,5.99508,50.49,6.55597
18.98,0.899051,22.0,1.13725,32.0,36.1317,37.5,6.17535,50.5,6.87436
18.99,0.926124,22.01,1.16886,32.01,38.0957,37.51,6.36386,50.51,7.21635
19.0,0.954437,22.02,1.2018,32.02,40.2233,37.52,6.56111,50.52,7.58429
19.01,0.984067,22.03,1.23615,32.03,42.533,37.53,6.76765,50.53,7.98086
19.02,1.0151,22.04,1.27199,32.04,45.046,37.54,6.98407,50.54,8.40908
19.03,1.04762,22.05,1.30941,32.05,47.7867,37.55,7.21102,50.55,8.87238
19.04,1.08172,22.06,1.34851,32.06,50.7833,37.56,7.44918,50.56,9.37465
19.05,1.11752,22.07,1.38937,32.07,54.0684,37.57,7.69931,50.57,9.92035
19.06,1.15512,22.08,1.43213,32.08,57.6797,37.58,7.96221,50.58,10.5146
19.07,1.19465,22.09,1.47688,32.09,61.6617,37.59,8.23877,50.59,11.1632
19.08,1.23625,22.1,1.52376,32.1,66.0662,37.6,8.52994,50.6,11.8729
19.09,1.28005,22.11,1.57291,32.11,70.9544,37.61,8.83678,50.61,12.6515
19.1,1.32621,22.12,1.62446,32.12,76.3989,37.62,9.16043,50.62,13.5082
19.11,1.37492,22.13,1.67859,32.13,82.4862,37.63,9.50212,50.63,14.4535
19.12,1.42635,22.14,1.73547,32.14,89.32,37.64,9.86322,50.64,15.4999
19.13,1.48073,22.15,1.79527,32.15,97.0256,37.65,10.2452,50.65,16.662
19.14,1.53826,22.16,1.85822,32.16,105.755,37.66,10.6498,50.66,17.9572
19.15,1.59921,22.17,1.92453,32.17,115.694,37.67,11.0787,50.67,19.4061
19.16,1.66385,22.18,1.99445,32.18,127.072,37.68,11.5339,50.68,21.0334
19.17,1.73249,22.19,2.06824,32.19,140.172,37.69,12.0177,50.69,22.8688
19.18,1.80545,22.2,2.14619,32.2,155.353,37.7,12.5323,50.7,24.9483
19.19,1.88311,22.21,2.22862,32.21,173.062,37.71,13.0807,50.71,27.3157
19.2,1.96588,22.22,2.31587,32.22,193.874,37.72,13.6656,50.72,30.0244
19.21,2.05421,22.23,2.40834,32.23,218.526,37.73,14.2904,50.73,33.1407
19.22,2.14863,22.24,2.50645,32.24,247.976,37.74,14.9589,50.74,36.7464
19.23,2.24969,22.25,2.61066,32.25,283.48,37.75,15.6751,50.75,40.9438
19.24,2.35804,22.26,2.72148,32.26,326.698,37.76,16.4437,50.76,45.8612
19.25,2.47438,22.27,2.83949,32.27,379.84,37.77,17.2698,50.77,51.6607
19.26,2.59953,22.28,2.96531,32.28,445.861,37.78,18.1594,50.78,58.5472
19.27,2.7344,22.29,3.09966,32.29,528.703,37.79,19.1191,50.79,66.7806
19.28,2.88,22.3,3.24332,32.3,633.552,37.8,20.1563,50.8,76.6897
19.29,3.03752,22.31,3.39716,32.31,766.995,37.81,21.2795,50.81,88.6863
19.3,3.20827,22.32,3.56217,32.32,936.694,37.82,22.4986,50.82,103.275
19.31,3.39379,22.33,3.73944,32.33,1149.71,37.83,23.8245,50.83,121.051
19.32,3.59582,22.34,3.93022,32.34,1407.66,37.84,25.27,50.84,142.651
19.33,3.81637,22.35,4.13591,32.35,1696.59,37.85,26.8499,50.85,168.627
19.34,4.05775,22.36,4.3581,32.36,1972.99,37.86,28.5811,50.86,199.149
19.35,4.32269,22.37,4.59859,32.37,2161.32,37.87,30.4832,50.87,233.454
19.36,4.61431,22.38,4.85944,32.38,2188.55,37.88,32.5794,50.88,269.062
19.37,4.93631,22.39,5.14299,32.39,2042.59,37.89,34.8966,50.89,301.139
19.38,5.29304,22.4,5.45194,32.4,1783.69,37.9,37.4663,50.9,323.015
19.39,5.68964,22.41,5.78939,32.41,1492.31,37.91,40.3263,50.91,328.739
19.4,6.13226,22.42,6.15895,32.42,1222.53,37.92,43.521,50.92,316.553
19.41,6.62823,22.43,6.56477,32.43,995.758,37.93,47.1039,50.93,290.097
19.42,7.18643,22.44,7.01172,32.44,813.702,37.94,51.139,50.94,256.003
19.43,7.81762,22.45,7.50552,32.45,670.218,37.95,55.704,50.95,220.444
19.44,8.53498,22.46,8.05285,32.46,557.551,37.96,60.8936,50.96,187.358
19.45,9.35478,22.47,8.66169,32.47,468.719,37.97,66.8237,50.97,158.493
19.46,10.2973,22.48,9.34149,32.48,398.121,37.98,73.6377,50.98,134.183
19.47,11.3879,22.49,10.1036,32.49,341.468,37.99,81.5139,50.99,114.07
19.48,12.6589,22.5,10.9616,32.5,295.537,38.0,90.676,51.0,97.5454
19.49,14.1518,22.51,11.9321,32.51,257.917,38.01,101.406,51.01,83.9793
19.5,15.9203,22.52,13.0354,32.52,226.8,38.02,114.065,51.02,72.8081
19.51,18.0352,22.53,14.2963,32.53,200.822,38.03,129.113,51.03,63.5615
19.52,20.591,22.54,15.7457,32.54,178.945,38.04,147.146,51.04,55.8602
19.53,23.7157,22.55,17.4223,32.55,160.372,38.05,168.936,51.05,49.4025
19.54,27.5854,22.56,19.3749,32.56,144.486,38.06,195.488,51.06,43.9504
19.55,32.4468,22.57,21.6659,32.57,130.803,38.07,228.103,51.07,39.316
19.56,38.6519,22.58,24.3753,32.58,118.942,38.08,268.443,51.08,35.3507
19.57,46.712,22.59,27.6076,32.59,108.598,38.09,318.576,51.09,31.9367
19.58,57.3814,22.6,31.5003,32.6,99.5272,38.1,380.902,51.1,28.9796
19.59,71.7856,22.61,36.2362,32.61,91.5321,38.11,457.808,51.11,26.404
19.6,91.5994,22.62,42.0614,32.62,84.4512,38.12,550.695,51.12,24.1488
19.61,119.225,22.63,49.3098,32.63,78.1518,38.13,657.873,51.13,22.1641
19.62,157.692,22.64,58.4377,32.64,72.5244,38.14,771.125,51.14,20.4094
19.63,209.244,22.65,70.069,32.65,67.4777,38.15,872.48,51.15,18.8512
19.64,270.243,22.66,85.0471,32.66,62.9351,38.16,936.24,51.16,17.4618
19.65,322.033,22.67,104.473,32.67,58.8323,38.17,941.052,51.17,16.218
19.66,334.025,22.68,129.658,32.68,55.1148,38.18,885.134,51.18,15.1005
19.67,297.094,22.69,161.8,32.69,51.7362,38.19,787.712,51.19,14.0931
19.68,236.87,22.7,200.986,32.7,48.6567,38.2,674.846,51.2,13.1819
19.69,179.819,22.71,244.046,32.71,45.8425,38.21,566.016,51.21,12.3552
19.7,135.425,22.72,281.943,32.72,43.2639,38.22,470.756,51.22,11.603
19.71,103.19,22.73,300.918,32.73,40.8956,38.23,391.49,51.23,10.9167
19.72,80.1207,22.74,291.833,32.74,38.7156,38.24,327.113,51.24,10.2889
19.73,63.4715,22.75,259.256,32.75,36.7043,38.25,275.305,51.25,9.7133
19.74,51.2488,22.76,216.69,32.76,34.845,38.26,233.633,51.26,9.1842
19.75,42.0984,22.77,175.448,32.77,33.1228,38.27,199.972,51.27,8.69682
19.76,35.114,22.78,140.615,32.78,31.5246,38.28,172.599,51.28,8.24691
19.77,29.6849,22.79,112.986,32.79,30.0389,38.29,150.163,51.29,7.83077
19.78,25.3941,22.8,91.6018,32.8,28.6553,38.3,131.619,51.3,7.44511
19.79,21.9515,22.81,75.131,32.81,27.3648,38.31,116.163,51.31,7.08706
19.8,19.1518,22.82,62.3812,32.82,26.1591,38.32,103.178,51.32,6.75406
19.81,16.8471,22.83,52.4164,32.83,25.0312,38.33,92.1825,51.33,6.44384
19.82,14.929,22.84,44.5383,32.84,23.9744,38.34,82.8042,51.34,6.15438
19.83,13.3166,22.85,38.2346,32.85,22.9829,38.35,74.75,51.35,5.88388
19.84,11.9491,22.86,33.131,32.86,22.0515,38.36,67.7886,51.36,5.63073
19.85,10.7799,22.87,28.9526,32.87,21.1754,38.37,61.7354,51.37,5.39349
19.86,9.77263,22.88,25.4957,32.88,20.3503,38.38,56.4424,51.38,5.17086
19.87,8.89906,22.89,22.6078,32.89,19.5724,38.39,51.7899,51.39,4.96166
19.88,8.13671,22.9,20.1736,32.9,18.8381,38.4,47.6804,51.4,4.76485
19.89,7.4676,22.91,18.1047,32.91,18.1443,38.41,44.0339,51.41,4.57946
19.9,6.87723,22.92,16.333,32.92,17.488,38.42,40.7844,51.42,4.40465
19.91,6.35378,22.93,14.8051,32.93,16.8666,38.43,37.8771,51.43,4.23961
19.92,5.88756,22.94,13.4789,32.94,16.2777,38.44,35.2662,51.44,4.08364
19.93,5.47057,22.95,12.3209,32.95,15.719,38.45,32.9132,51.45,3.93608
19.94,5.09616,22.96,11.3041,32.96,15.1885,38.46,30.7856,51.46,3.79636
19.95,4.75873,22.97,10.4069,32.97,14.6844,38.47,28.8558,51.47,3.66391
19.96,4.4536,22.98,9.61128,32.98,14.2049,38.48,27.1003,51.48,3.53826
19.97,4.17678,22.99,8.90267,32.99,13.7485,38.49,25.4988,51.49,3.41893
19.98,3.9249,23.0,8.26895,33.0,13.3137,38.5,24.034,51.5,3.30552
19.99,3.69506,23.01,7.70001,33.01,12.8991,38.51,22.691,51.51,3.19765
20.0,3.48476,23.02,7.18739,33.02,12.5036,38.52,21.4566,51.52,3.09496
20.01,3.29186,23.03,6.72394,33.03,12.1259,38.53,20.3196,51.53,2.99711
20.02,3.1145,23.04,6.30361,33.04,11.7651,38.54,19.27,51.54,2.90383
20.03,2.95106,23.05,5.92124,33.05,11.4201,38.55,18.2992,51.55,2.81482
20.04,2.80012,23.06,5.57244,33.06,11.0901,38.56,17.3995,51.56,2.72983
20.05,2.66044,23.07,5.2534,33.07,10.7741,38.57,16.5642,51.57,2.64862
20.06,2.53093,23.08,4.96085,33.08,10.4714,38.58,15.7873,51.58,2.57097
20.07,2.41063,23.09,4.69195,33.09,10.1813,38.59,15.0635,51.59,2.49668
20.08,2.29869,23.1,4.44424,33.1,9.90308,38.6,14.3881,51.6,2.42555
20.09,2.19436,23.11,4.21555,33.11,9.63607,38.61,13.757,51.61,2.35742
20.1,2.09695,23.12,4.00399,33.12,9.37971,38.62,13.1663,51.62,2.29211
20.11,2.00588,23.13,3.8079,33.13,9.13342,38.63,12.6126,51.63,2.22947
20.12,1.9206,23.14,3.62581,33.14,8.8967,38.64,12.0931,51.64,2.16936
20.13,1.84064,23.15,3.45644,33.15,8.66905,38.65,11.6048,51.65,2.11164
20.14,1.76556,23.16,3.29861,33.16,8.45002,38.66,11.1454,51.66,2.05619
20.15,1.69498,23.17,3.15132,33.17,8.23917,38.67,10.7127,51.67,2.00289
20.16,1.62854,23.18,3.01365,33.18,8.03611,38.68,10.3046,51.68,1.95163
20.17,1.56592,23.19,2.88478,33.19,7.84046,38.69,9.91933,51.69,1.90232
20.18,1.50684,23.2,2.76397,33.2,7.65185,38.7,9.55518,51.7,1.85484
20.19,1.45104,23.21,2.65058,33.21,7.46997,38.71,9.21065,51.71,1.80912
20.2,1.39828,23.22,2.544,33.22,7.29448,38.72,8.88438,51.72,1.76506
20.21,1.34834,23.23,2.44371,33.23,7.1251,38.73,8.57508,51.73,1.72259
20.22,1.30102,23.24,2.34922,33.24,6.96155,38.74,8.28162,51.74,1.68164
20.23,1.25615,23.25,2.2601,33.25,6.80356,38.75,8.00292,51.75,1.64212
20.24,1.21356,23.26,2.17594,33.26,6.65088,38.76,7.73803,,
20.25,1.1731,23.27,2.09638,33.27,6.50328,38.77,7.48603,,
20.26,1.13462,23.28,2.0211,33.28,6.36053,38.78,7.24612,,
20.27,1.09801,23.29,1.94979,33.29,6.22243,38.79,7.01753,,
20.28,1.06314,23.3,1.88218,33.3,6.08877,38.8,6.79957,,
20.29,1.0299,23.31,1.81803,33.31,5.95937,38.81,6.59158,,
20.3,0.998193,23.32,1.75709,33.32,5.83405,38.82,6.39297,,
20.31,0.967928,23.33,1.69916,33.33,5.71264,38.83,6.20318,,
20.32,0.939017,23.34,1.64404,33.34,5.59497,38.84,6.0217,,
20.33,0.911382,23.35,1.59156,33.35,5.4809,38.85,5.84806,,
20.34,0.884948,23.36,1.54155,33.36,5.37028,38.86,5.6818,,
20.35,0.859646,23.37,1.49385,33.37,5.26297,38.87,5.52252,,
20.36,0.835414,23.38,1.44833,33.38,5.15885,38.88,5.36984,,
20.37,0.812191,23.39,1.40486,33.39,5.05778,38.89,5.22339,,
20.38,0.789922,23.4,1.36331,33.4,4.95965,38.9,5.08284,,
20.39,0.768556,23.41,1.32358,33.41,4.86435,38.91,4.94787,,
20.4,0.748045,23.42,1.28555,33.42,4.77177,38.92,4.81821,,
20.41,0.728343,23.43,1.24914,33.43,4.6818,38.93,4.69356,,
20.42,0.709409,23.44,1.21425,33.44,4.59435,38.94,4.57368,,
20.43,0.691203,23.45,1.1808,33.45,4.50933,38.95,4.45833,,
20.44,0.673689,23.46,1.14872,33.46,4.42665,38.96,4.34729,,
20.45,0.656832,23.47,1.11792,33.47,4.34621,38.97,4.24033,,
20.46,0.640599,23.48,1.08834,33.48,4.26795,38.98,4.13727,,
20.47,0.624961,23.49,1.05992,33.49,4.19178,38.99,4.03792,,
20.48,0.609887,23.5,1.0326,33.5,4.11763,39.0,3.94209,,
20.49,0.595353,,,,,39.01,3.84964,,
20.5,0.581331,,,,,39.02,3.76039,,