File: output/03%/voigt/dataset/fitting.csv
111thetas,111intensity,200thetas,200intensity,220thetas,220intensity,311thetas,311intensity,222thetas,222intensity,400thetas,400intensity
18.5,0.2247,21.47,0.697084,31.06,3.00225,37.0,2.08363,50.0,1.56506,51.76,5.14767
18.51,0.228663,21.48,0.708351,31.07,3.04861,37.01,2.12002,50.01,1.60042,51.77,5.33425
18.52,0.232732,21.49,0.719894,31.08,3.09604,37.02,2.15738,50.02,1.63699,51.78,5.53112
18.53,0.23691,21.5,0.731721,31.09,3.1446,37.03,2.19573,50.03,1.67482,51.79,5.73907
18.54,0.241202,21.51,0.743841,31.1,3.1943,37.04,2.23511,50.04,1.71398,51.8,5.95892
18.55,0.245611,21.52,0.756266,31.11,3.24519,37.05,2.27556,50.05,1.75453,51.81,6.19161
18.56,0.250143,21.53,0.769004,31.12,3.29731,37.06,2.31712,50.06,1.79654,51.82,6.43815
18.57,0.254801,21.54,0.782066,31.13,3.35069,37.07,2.35982,50.07,1.84006,51.83,6.69965
18.58,0.259591,21.55,0.795464,31.14,3.40538,37.08,2.40372,50.08,1.88519,51.84,6.97736
18.59,0.264516,21.56,0.809209,31.15,3.46142,37.09,2.44885,50.09,1.932,51.85,7.27262
18.6,0.269583,21.57,0.823314,31.16,3.51885,37.1,2.49527,50.1,1.98056,51.86,7.58695
18.61,0.274798,21.58,0.83779,31.17,3.57772,37.11,2.54301,50.11,2.03098,51.87,7.92202
18.62,0.280165,21.59,0.852651,31.18,3.63808,37.12,2.59214,50.12,2.08335,51.88,8.27967
18.63,0.28569,21.6,0.86791,31.19,3.69998,37.13,2.64271,50.13,2.13777,51.89,8.66198
18.64,0.291381,21.61,0.883583,31.2,3.76348,37.14,2.69477,50.14,2.19434,51.9,9.07126
18.65,0.297243,21.62,0.899684,31.21,3.82862,37.15,2.74838,50.15,2.25319,51.91,9.51009
18.66,0.303284,21.63,0.916229,31.22,3.89547,37.16,2.8036,50.16,2.31443,51.92,9.98136
18.67,0.309511,21.64,0.933235,31.23,3.96408,37.17,2.8605,50.17,2.37819,51.93,10.4883
18.68,0.315932,21.65,0.950717,31.24,4.03452,37.18,2.91916,50.18,2.44463,51.94,11.0347
18.69,0.322554,21.66,0.968696,31.25,4.10685,37.19,2.97963,50.19,2.51388,51.95,11.6246
18.7,0.329387,21.67,0.987189,31.26,4.18115,37.2,3.042,50.2,2.58612,51.96,12.2627
18.71,0.33644,21.68,1.00622,31.27,4.25748,37.21,3.10635,50.21,2.66151,51.97,12.9545
18.72,0.343721,21.69,1.0258,31.28,4.33592,37.22,3.17276,50.22,2.74023,51.98,13.7061
18.73,0.351241,21.7,1.04596,31.29,4.41654,37.23,3.24133,50.23,2.8225,51.99,14.5244
18.74,0.35901,21.71,1.06672,31.3,4.49943,37.24,3.31213,50.24,2.90851,52.0,15.4176
18.75,0.36704,21.72,1.0881,31.31,4.58468,37.25,3.38528,50.25,2.99852,52.01,16.395
18.76,0.375343,21.73,1.11013,31.32,4.67237,37.26,3.46088,50.26,3.09275,52.02,17.4675
18.77,0.38393,21.74,1.13284,31.33,4.76261,37.27,3.53903,50.27,3.19149,52.03,18.6475
18.78,0.392815,21.75,1.15625,31.34,4.85547,37.28,3.61986,50.28,3.29503,52.04,19.9498
18.79,0.402012,21.76,1.18039,31.35,4.95109,37.29,3.70349,50.29,3.40367,52.05,21.3917
18.8,0.411536,21.77,1.2053,31.36,5.04955,37.3,3.79005,50.3,3.51777,52.06,22.9936
18.81,0.421402,21.78,1.23101,31.37,5.15097,37.31,3.87968,50.31,3.63768,52.07,24.7797
18.82,0.431627,21.79,1.25754,31.38,5.25548,37.32,3.97251,50.32,3.76382,52.08,26.7789
18.83,0.442229,21.8,1.28494,31.39,5.3632,37.33,4.06872,50.33,3.89661,52.09,29.0259
18.84,0.453226,21.81,1.31324,31.4,5.47427,37.34,4.16846,50.34,4.03654,52.1,31.5624
18.85,0.464638,21.82,1.34249,31.41,5.58882,37.35,4.27191,50.35,4.18412,52.11,34.4394
18.86,0.476486,21.83,1.37273,31.42,5.707,37.36,4.37925,50.36,4.33992,52.12,37.7191
18.87,0.488794,21.84,1.404,31.43,5.82897,37.37,4.49068,50.37,4.50456,52.13,41.4783
18.88,0.501584,21.85,1.43635,31.44,5.95489,37.38,4.60642,50.38,4.67872,52.14,45.8122
18.89,0.514882,21.86,1.46983,31.45,6.08492,37.39,4.72669,50.39,4.86315,52.15,50.8402
18.9,0.528716,21.87,1.50449,31.46,6.21927,37.4,4.85171,50.4,5.05866,52.16,56.7128
18.91,0.543115,21.88,1.5404,31.47,6.3581,37.41,4.98176,50.41,5.26615,52.17,63.6215
18.92,0.558111,21.89,1.5776,31.48,6.50164,37.42,5.1171,50.42,5.48664,52.18,71.8123
18.93,0.573735,21.9,1.61616,31.49,6.65008,37.43,5.25803,50.43,5.7212,52.19,81.6032
18.94,0.590024,21.91,1.65616,31.5,6.80367,37.44,5.40485,50.44,5.97108,52.2,93.4086
18.95,0.607017,21.92,1.69765,31.51,6.96263,37.45,5.55789,50.45,6.23762,52.21,107.771
18.96,0.624754,21.93,1.74073,31.52,7.12723,37.46,5.71752,50.46,6.52233,52.22,125.406
18.97,0.64328,21.94,1.78546,31.53,7.29773,37.47,5.88411,50.47,6.82689,52.23,147.246
18.98,0.662641,21.95,1.83194,31.54,7.47441,37.48,6.05807,50.48,7.15318,52.24,174.502
18.99,0.682889,21.96,1.88025,31.55,7.65759,37.49,6.23986,50.49,7.50332,52.25,208.689
19.0,0.70408,21.97,1.9305,31.56,7.84757,37.5,6.42993,50.5,7.87966,52.26,251.569
19.01,0.726271,21.98,1.98279,31.57,8.04471,37.51,6.62881,50.51,8.28488,52.27,304.852
19.02,0.749527,21.99,2.03722,31.58,8.24936,37.52,6.83704,50.52,8.72198,52.28,369.342
19.03,0.773918,22.0,2.09393,31.59,8.46191,37.53,7.05522,50.53,9.19439,52.29,443.116
19.04,0.799518,22.01,2.15304,31.6,8.68278,37.54,7.28399,50.54,9.70597,52.3,518.68
19.05,0.826408,22.02,2.21468,31.61,8.9124,37.55,7.52404,50.55,10.2612,52.31,580.99
19.06,0.854677,22.03,2.279,31.62,9.15124,37.56,7.77613,50.56,10.865,52.32,611.088
19.07,0.884421,22.04,2.34616,31.63,9.39981,37.57,8.04108,50.57,11.5233,52.33,597.496
19.08,0.915743,22.05,2.41633,31.64,9.65862,37.58,8.31977,50.58,12.2428,52.34,545.591
19.09,0.948758,22.06,2.4897,31.65,9.92827,37.59,8.61317,50.59,13.0312,52.35,473.014
19.1,0.983589,22.07,2.56645,31.66,10.2093,37.6,8.92232,50.6,13.8975,52.36,397.247
19.11,1.02037,22.08,2.64679,31.67,10.5025,37.61,9.24838,50.61,14.8522,52.37,328.672
19.12,1.05926,22.09,2.73097,31.68,10.8085,37.62,9.59259,50.62,15.9076,52.38,271.02
19.13,1.1004,22.1,2.81922,31.69,11.128,37.63,9.95633,50.63,17.0783,52.39,224.266
19.14,1.14399,22.11,2.9118,31.7,11.4619,37.64,10.3411,50.64,18.3813,52.4,186.909
19.15,1.19022,22.12,3.00902,31.71,11.811,37.65,10.7485,50.65,19.8371,52.41,157.148
19.16,1.2393,22.13,3.11118,31.72,12.1763,37.66,11.1804,50.66,21.4703,52.42,133.357
19.17,1.29149,22.14,3.21861,31.73,12.5588,37.67,11.6388,50.67,23.3101,52.43,114.209
19.18,1.34703,22.15,3.3317,31.74,12.9595,37.68,12.1259,50.68,25.3925,52.44,98.6672
19.19,1.40623,22.16,3.45085,31.75,13.3798,37.69,12.6441,50.69,27.7609,52.45,85.938
19.2,1.46941,22.17,3.57649,31.76,13.8207,37.7,13.1961,50.7,30.4691,52.46,75.4175
19.21,1.53695,22.18,3.70909,31.77,14.2838,37.71,13.7849,50.71,33.5833,52.47,66.6456
19.22,1.60924,22.19,3.8492,31.78,14.7705,37.72,14.4138,50.72,37.1867,52.48,59.27
19.23,1.68674,22.2,3.99738,31.79,15.2825,37.73,15.0866,50.73,41.3835,52.49,53.019
19.24,1.76997,22.21,4.15425,31.8,15.8216,37.74,15.8073,50.74,46.3065,52.5,47.6818
19.25,1.85951,22.22,4.32053,31.81,16.3896,37.75,16.5808,50.75,52.1255,52.51,43.0931
19.26,1.95601,22.23,4.49696,31.82,16.9886,37.76,17.4121,50.76,59.0603,52.52,39.1224
19.27,2.0602,22.24,4.68439,31.83,17.6211,37.77,18.3072,50.77,67.397,52.53,35.6659
19.28,2.17292,22.25,4.88375,31.84,18.2895,37.78,19.2728,50.78,77.5121,52.54,32.64
19.29,2.29513,22.26,5.09607,31.85,18.9965,37.79,20.3163,50.79,89.9024,52.55,29.9774
19.3,2.42793,22.27,5.3225,31.86,19.7453,37.8,21.4464,50.8,105.226,52.56,27.6231
19.31,2.57256,22.28,5.56431,31.87,20.5391,37.81,22.6728,50.81,124.353,52.57,25.5318
19.32,2.73048,22.29,5.82291,31.88,21.3817,37.82,24.0068,50.82,148.409,52.58,23.6664
19.33,2.90336,22.3,6.09991,31.89,22.277,37.83,25.4611,50.83,178.8,52.59,21.9958
19.34,3.09313,22.31,6.39707,31.9,23.2297,37.84,27.0506,50.84,217.122,52.6,20.4941
19.35,3.30208,22.32,6.71639,31.91,24.2445,37.85,28.7924,50.85,264.777,52.61,19.1396
19.36,3.53286,22.33,7.06012,31.92,25.3272,37.86,30.7064,50.86,321.957,52.62,17.9138
19.37,3.78862,22.34,7.43081,31.93,26.4838,37.87,32.8159,50.87,385.59,52.63,16.8011
19.38,4.07307,22.35,7.83132,31.94,27.7213,37.88,35.1481,50.88,446.62,52.64,15.788
19.39,4.39066,22.36,8.26494,31.95,29.0472,37.89,37.7351,50.89,489.517,52.65,14.8632
19.4,4.74671,22.37,8.7354,31.96,30.4702,37.9,40.615,50.9,498.801,52.66,14.0167
19.41,5.14766,22.38,9.24695,31.97,32,37.91,43.8331,50.91,470.596,52.67,13.24
19.42,5.60135,22.39,9.80451,31.98,33.6475,37.92,47.4436,50.92,416.093,52.68,12.5257
19.43,6.11739,22.4,10.4137,31.99,35.4251,37.93,51.512,50.93,352.133,52.69,11.8673
19.44,6.70766,22.41,11.0811,32.0,37.3467,37.94,56.1176,50.94,291.16,52.7,11.2592
19.45,7.38701,22.42,11.8143,32.01,39.4283,37.95,61.3575,50.95,238.81,52.71,10.6964
19.46,8.17415,22.43,12.6221,32.02,41.6879,37.96,67.3509,50.96,196.136,52.72,10.1745
19.47,9.09292,22.44,13.5149,32.03,44.1465,37.97,74.246,50.97,162.133,52.73,9.68973
19.48,10.1741,22.45,14.5051,32.04,46.8279,37.98,82.2278,50.98,135.223,52.74,9.23862
19.49,11.4577,22.46,15.607,32.05,49.7598,37.99,91.5298,50.99,113.884,52.75,8.81815
19.5,12.9971,22.47,16.8381,32.06,52.9741,38.0,102.449,51.0,96.8555,52.76,8.42562
19.51,14.8637,22.48,18.2189,32.07,56.508,38.01,115.368,51.01,83.1487,52.77,8.05861
19.52,17.1555,22.49,19.7747,32.08,60.4051,38.02,130.782,51.02,72.0107,52.78,7.71498
19.53,20.009,22.5,21.5356,32.09,64.7164,38.03,149.338,51.03,62.8726,52.79,7.39277
19.54,23.6188,22.51,23.5388,32.1,69.5024,38.04,171.893,51.04,55.3044,52.8,7.09027
19.55,28.2681,22.52,25.8301,32.11,74.8345,38.05,199.586,51.05,48.9801,52.81,6.80589
19.56,34.3801,22.53,28.4665,32.12,80.7984,38.06,233.937,51.06,43.6502,52.82,6.53822
19.57,42.6032,22.54,31.5191,32.13,87.4969,38.07,276.979,51.07,39.1229,52.83,6.28599
19.58,53.9582,22.55,35.0782,32.14,95.0541,38.08,331.393,51.08,35.2488,52.84,6.04803
19.59,70.0867,22.56,39.2591,32.15,103.622,38.09,400.607,51.09,31.9109,52.85,5.82329
19.6,93.6512,22.57,44.2105,32.16,113.385,38.1,488.682,51.1,29.0167,52.86,5.6108
19.61,128.825,22.58,50.1265,32.17,124.573,38.11,599.561,51.11,26.4924,52.87,5.40971
19.62,181.102,22.59,57.2635,32.18,137.474,38.12,734.801,51.12,24.2785,52.88,5.21921
19.63,252.799,22.6,65.9634,32.19,152.447,38.13,888.575,51.13,22.327,52.89,5.03857
19.64,326.333,22.61,76.6877,32.2,169.951,38.14,1040.21,51.14,20.5985,52.9,4.86712
19.65,351.161,22.62,90.0655,32.21,190.574,38.15,1151.09,51.15,19.0607,52.91,4.70426
19.66,302.505,22.63,106.959,32.22,215.083,38.16,1179.79,51.16,17.687,52.92,4.54941
19.67,225.303,22.64,128.554,32.23,244.481,38.17,1113.68,51.17,16.4551,52.93,4.40207
19.68,160.105,22.65,156.458,32.24,280.108,38.18,980.674,51.18,15.3462,52.94,4.26176
19.69,114.574,22.66,192.777,32.25,323.765,38.19,824.439,51.19,14.3447,52.95,4.12803
19.7,84.1409,22.67,240.018,32.26,377.914,38.2,676.753,51.2,13.4374,52.96,4.00049
19.71,63.6281,22.68,300.432,32.27,445.952,38.21,551.328,51.21,12.6127,52.97,3.87876
19.72,49.4498,22.69,373.986,32.28,532.617,38.22,450.163,51.22,11.8611,52.98,3.76249
19.73,39.3648,22.7,454.043,32.29,644.54,38.23,370.303,51.23,11.1743,52.99,3.65136
19.74,31.9908,22.71,522.428,32.3,790.947,38.24,307.595,51.24,10.5451,53.0,3.54507
19.75,26.4625,22.72,552.784,32.31,984.289,38.25,258.196,51.25,9.96715,53.01,3.44335
19.76,22.2251,22.73,529.919,32.32,1239.99,38.26,218.987,51.26,9.43519,53.02,3.34593
19.77,18.9129,22.74,465.482,32.33,1572.83,38.27,187.568,51.27,8.94447,53.03,3.25259
19.78,16.2791,22.75,385.696,32.34,1984.22,38.28,162.133,51.28,8.49085,53.04,3.16309
19.79,14.1528,22.76,310.531,32.35,2433.09,38.29,141.331,51.29,8.0707,53.05,3.07723
19.8,12.4129,22.77,248.074,32.36,2802.19,38.3,124.148,51.3,7.68082,53.06,2.99481
19.81,10.9722,22.78,199.006,32.37,2927.66,38.31,109.822,51.31,7.3184,53.07,2.91565
19.82,9.76632,22.79,161.236,32.38,2738.84,38.32,97.7723,51.32,6.98092,53.08,2.83959
19.83,8.74733,22.8,132.234,32.39,2339.14,38.33,87.5541,51.33,6.66616,53.09,2.76646
19.84,7.87879,22.81,109.82,32.4,1891.29,38.34,78.8231,51.34,6.37213,53.1,2.69612
19.85,7.13265,22.82,92.3154,32.41,1495.19,38.35,71.3103,51.35,6.09705,53.11,2.62842
19.86,6.48709,22.83,78.4792,32.42,1179.62,38.36,64.8035,51.36,5.83934,53.12,2.56323
19.87,5.92491,22.84,67.4073,32.43,938.54,38.37,59.1339,51.37,5.59758,53.13,2.50044
19.88,5.43242,22.85,58.4408,32.44,756.382,38.38,54.1661,51.38,5.37047,53.14,2.43993
19.89,4.9986,22.86,51.0969,32.45,618.229,38.39,49.7905,51.39,5.15686,53.15,2.38158
19.9,4.61453,22.87,45.0184,32.46,512.346,38.4,45.9178,51.4,4.9557,53.16,2.3253
19.91,4.27292,22.88,39.938,32.47,430.12,38.41,42.4748,51.41,4.76606,53.17,2.27098
19.92,3.96775,22.89,35.6536,32.48,365.377,38.42,39.4008,51.42,4.58706,53.18,2.21855
19.93,3.69403,22.9,32.0106,32.49,313.705,38.43,36.6456,51.43,4.41793,53.19,2.16791
19.94,3.4476,22.91,28.8893,32.5,271.935,38.44,34.1668,51.44,4.25796,53.2,2.11898
19.95,3.22497,22.92,26.1964,32.51,237.764,38.45,31.9292,51.45,4.1065,53.21,2.07169
19.96,3.02316,22.93,23.8579,32.52,209.504,38.46,29.9025,51.46,3.96296,53.22,2.02596
19.97,2.83967,22.94,21.8152,32.53,185.896,38.47,28.0615,51.47,3.8268,53.23,1.98172
19.98,2.67236,22.95,20.0211,32.54,165.992,38.48,26.3841,51.48,3.69752,53.24,1.93892
19.99,2.51937,22.96,18.4371,32.55,149.071,38.49,24.8517,51.49,3.57467,53.25,1.89749
20.0,2.37913,22.97,17.0321,32.56,134.573,38.5,23.4482,51.5,3.45782,53.26,1.85737
20.01,2.25025,22.98,15.7803,32.57,122.063,38.51,22.1597,51.51,3.3466,53.27,1.81851
20.02,2.13155,22.99,14.6605,32.58,111.199,38.52,20.9738,51.52,3.24065,53.28,1.78086
20.03,2.02199,23.0,13.6548,32.59,101.708,38.53,19.8802,51.53,3.13964,53.29,1.74436
20.04,1.92064,23.01,12.7484,32.6,93.3693,38.54,18.8695,51.54,3.04328,53.3,1.70897
20.05,1.82672,23.02,11.9287,32.61,86.0062,38.55,17.9336,51.55,2.95127,53.31,1.67465
20.06,1.7395,23.03,11.1851,32.62,79.4734,38.56,17.0653,51.56,2.86337,53.32,1.64135
20.07,1.65838,23.04,10.5085,32.63,73.6517,38.57,16.2582,51.57,2.77933,53.33,1.60903
20.08,1.5828,23.05,9.89111,32.64,68.4423,38.58,15.5069,51.58,2.69893,53.34,1.57766
20.09,1.51226,23.06,9.3263,32.65,63.7628,38.59,14.8063,51.59,2.62196,53.35,1.54719
20.1,1.44633,23.07,8.80827,32.66,59.5442,38.6,14.1519,51.6,2.54823,53.36,1.5176
20.11,1.38461,23.08,8.33203,32.67,55.7283,38.61,13.5397,51.61,2.47756,53.37,1.48885
20.12,1.32675,23.09,7.89321,32.68,52.2657,38.62,12.9664,51.62,2.40979,53.38,1.4609
20.13,1.27245,23.1,7.48802,32.69,49.1143,38.63,12.4285,51.63,2.34476,53.39,1.43374
20.14,1.2214,23.11,7.11312,32.7,46.2382,38.64,11.9234,51.64,2.28232,53.4,1.40732
20.15,1.17336,23.12,6.76557,32.71,43.6063,38.65,11.4483,51.65,2.22234,53.41,1.38163
20.16,1.1281,23.13,6.44279,32.72,41.1919,38.66,11.001,51.66,2.16469,53.42,1.35664
20.17,1.08541,23.14,6.14249,32.73,38.9717,38.67,10.5793,51.67,2.10925,53.43,1.33231
20.18,1.04509,23.15,5.86264,32.74,36.9256,38.68,10.1813,51.68,2.05591,53.44,1.30864
20.19,1.00698,23.16,5.60142,32.75,35.0358,38.69,9.80533,51.69,2.00457,53.45,1.28559
20.2,0.970911,23.17,5.35722,32.76,33.287,38.7,9.44974,51.7,1.95512,53.46,1.26314
20.21,0.936745,23.18,5.1286,32.77,31.6655,38.71,9.1131,51.71,1.90748,53.47,1.24128
20.22,0.904349,23.19,4.91427,32.78,30.1592,38.72,8.79409,51.72,1.86155,53.48,1.21997
20.23,0.873604,23.2,4.71306,32.79,28.7576,38.73,8.49151,51.73,1.81727,53.49,1.19922
20.24,0.8444,23.21,4.52393,32.8,27.4512,38.74,8.20424,51.74,1.77454,53.5,1.17898
20.25,0.816634,23.22,4.34593,32.81,26.2315,38.75,7.93127,51.75,1.7333,,
20.26,0.790215,23.23,4.17821,32.82,25.0912,38.76,7.67168,,,,
20.27,0.765057,23.24,4.01999,32.83,24.0234,38.77,7.4246,,,,
20.28,0.74108,23.25,3.87057,32.84,23.0222,38.78,7.18924,,,,
20.29,0.718213,23.26,3.72931,32.85,22.0821,38.79,6.96488,,,,
20.3,0.696387,23.27,3.59563,32.86,21.1984,38.8,6.75084,,,,
20.31,0.67554,23.28,3.46899,32.87,20.3665,38.81,6.54649,,,,
20.32,0.655615,23.29,3.34891,32.88,19.5826,38.82,6.35128,,,,
20.33,0.636559,23.3,3.23496,32.89,18.8429,38.83,6.16465,,,,
20.34,0.61832,23.31,3.12671,32.9,18.1443,38.84,5.98611,,,,
20.35,0.600854,23.32,3.02379,32.91,17.4838,38.85,5.81521,,,,
20.36,0.584118,23.33,2.92587,32.92,16.8586,38.86,5.65151,,,,
20.37,0.568071,23.34,2.83261,32.93,16.2663,38.87,5.49461,,,,
20.38,0.552675,23.35,2.74374,32.94,15.7047,38.88,5.34415,,,,
20.39,0.537897,23.36,2.65898,32.95,15.1715,38.89,5.19978,,,,
20.4,0.523704,23.37,2.57808,32.96,14.6651,38.9,5.06118,,,,
20.41,0.510064,23.38,2.50082,32.97,14.1835,38.91,4.92803,,,,
20.42,0.496951,23.39,2.42697,32.98,13.7252,38.92,4.80006,,,,
20.43,0.484336,23.4,2.35634,32.99,13.2888,38.93,4.67701,,,,
20.44,0.472196,23.41,2.28874,33.0,12.8728,38.94,4.55862,,,,
20.45,0.460506,23.42,2.22401,33.01,12.476,38.95,4.44467,,,,
20.46,0.449245,23.43,2.16198,33.02,12.0973,38.96,4.33493,,,,
20.47,0.438392,23.44,2.10251,33.03,11.7355,38.97,4.2292,,,,
20.48,0.427927,23.45,2.04545,33.04,11.3897,38.98,4.12729,,,,
20.49,0.417832,23.46,1.99069,33.05,11.0589,38.99,4.02901,,,,
20.5,0.40809,23.47,1.93809,33.06,10.7424,39.0,3.9342,,,,
20.51,0.398685,23.48,1.88755,33.07,10.4392,,,,,,
20.52,0.389601,23.49,1.83896,33.08,10.1486,,,,,,
20.53,0.380824,23.5,1.79221,33.09,9.87003,,,,,,
20.54,0.37234,23.51,1.74723,33.1,9.60274,,,,,,
20.55,0.364137,23.52,1.70391,33.11,9.34615,,,,,,
20.56,0.356201,23.53,1.66219,33.12,9.0997,,,,,,