File: data/fitting/input/peaks.csv
110theta,110intensity,200theta,200intensity,211theta,211intensity,220theta,220intensity,310theta,310intensity,222theta,222intensity
19,375,27.5,166.667,34,266.667,40,204.167,45,100,49.5,70.8333
19.004,283.333,27.504,225,34.004,250,40.004,154.167,45.004,91.6667,49.504,91.6667
19.008,333.333,27.508,183.333,34.008,316.667,40.008,141.667,45.008,125,49.508,87.5
19.012,354.167,27.512,220.833,34.012,250,40.012,150,45.012,104.167,49.512,116.667
19.016,300,27.516,166.667,34.016,220.833,40.016,145.833,45.016,129.167,49.516,104.167
19.02,366.667,27.52,200,34.02,283.333,40.02,129.167,45.02,129.167,49.52,100
19.024,300,27.524,179.167,34.024,262.5,40.024,133.333,45.024,75,49.524,116.667
19.028,362.5,27.528,179.167,34.028,229.167,40.028,116.667,45.028,83.3333,49.528,116.667
19.032,329.167,27.532,158.333,34.032,250,40.032,137.5,45.032,95.8333,49.532,104.167
19.036,329.167,27.536,216.667,34.036,345.833,40.036,200,45.036,79.1667,49.536,79.1667
19.04,320.833,27.54,212.5,34.04,283.333,40.04,195.833,45.04,116.667,49.54,58.3333
19.044,412.5,27.544,166.667,34.044,237.5,40.044,162.5,45.044,83.3333,49.544,75
19.048,358.333,27.548,187.5,34.048,270.833,40.048,137.5,45.048,75,49.548,100
19.052,420.833,27.552,162.5,34.052,295.833,40.052,170.833,45.052,95.8333,49.552,95.8333
19.056,275,27.556,175,34.056,262.5,40.056,104.167,45.056,87.5,49.556,91.6667
19.06,429.167,27.56,250,34.06,233.333,40.06,187.5,45.06,66.6667,49.56,137.5
19.064,333.333,27.564,212.5,34.064,258.333,40.064,95.8333,45.064,54.1667,49.564,133.333
19.068,433.333,27.568,154.167,34.068,320.833,40.068,204.167,45.068,112.5,49.568,137.5
19.072,370.833,27.572,233.333,34.072,258.333,40.072,137.5,45.072,66.6667,49.572,108.333
19.076,466.667,27.576,237.5,34.076,275,40.076,158.333,45.076,95.8333,49.576,137.5
19.08,404.167,27.58,237.5,34.08,254.167,40.08,150,45.08,100,49.58,83.3333
19.084,454.167,27.584,200,34.084,283.333,40.084,141.667,45.084,62.5,49.584,75
19.088,358.333,27.588,208.333,34.088,270.833,40.088,125,45.088,87.5,49.588,112.5
19.092,425,27.592,158.333,34.092,262.5,40.092,145.833,45.092,41.6667,49.592,91.6667
19.096,333.333,27.596,158.333,34.096,354.167,40.096,120.833,45.096,87.5,49.596,104.167
19.1,437.5,27.6,212.5,34.1,275,40.1,141.667,45.1,91.6667,49.6,75
19.104,404.167,27.604,145.833,34.104,250,40.104,145.833,45.104,100,49.604,58.3333
19.108,425,27.608,208.333,34.108,270.833,40.108,170.833,45.108,91.6667,49.608,112.5
19.112,379.167,27.612,200,34.112,279.167,40.112,116.667,45.112,95.8333,49.612,70.8333
19.116,445.833,27.616,241.667,34.116,295.833,40.116,158.333,45.116,87.5,49.616,108.333
19.12,337.5,27.62,145.833,34.12,258.333,40.12,120.833,45.12,95.8333,49.62,129.167
19.124,320.833,27.624,187.5,34.124,245.833,40.124,166.667,45.124,66.6667,49.624,100
19.128,366.667,27.628,150,34.128,279.167,40.128,125,45.128,75,49.628,87.5
19.132,287.5,27.632,258.333,34.132,275,40.132,133.333,45.132,66.6667,49.632,87.5
19.136,425,27.636,220.833,34.136,275,40.136,175,45.136,75,49.636,79.1667
19.14,379.167,27.64,187.5,34.14,312.5,40.14,150,45.14,70.8333,49.64,95.8333
19.144,450,27.644,154.167,34.144,295.833,40.144,166.667,45.144,141.667,49.644,104.167
19.148,350,27.648,158.333,34.148,254.167,40.148,191.667,45.148,100,49.648,108.333
19.152,475,27.652,150,34.152,270.833,40.152,166.667,45.152,66.6667,49.652,125
19.156,391.667,27.656,200,34.156,270.833,40.156,179.167,45.156,75,49.656,95.8333
19.16,500,27.66,212.5,34.16,258.333,40.16,150,45.16,62.5,49.66,91.6667
19.164,345.833,27.664,195.833,34.164,279.167,40.164,158.333,45.164,87.5,49.664,108.333
19.168,483.333,27.668,241.667,34.168,295.833,40.168,129.167,45.168,95.8333,49.668,83.3333
19.172,395.833,27.672,212.5,34.172,275,40.172,175,45.172,125,49.672,83.3333
19.176,495.833,27.676,145.833,34.176,241.667,40.176,104.167,45.176,83.3333,49.676,70.8333
19.18,404.167,27.68,158.333,34.18,266.667,40.18,141.667,45.18,79.1667,49.68,95.8333
19.184,508.333,27.684,241.667,34.184,320.833,40.184,150,45.184,75,49.684,70.8333
19.188,441.667,27.688,150,34.188,304.167,40.188,112.5,45.188,112.5,49.688,62.5
19.192,504.167,27.692,216.667,34.192,250,40.192,137.5,45.192,95.8333,49.692,120.833
19.196,362.5,27.696,162.5,34.196,300,40.196,125,45.196,112.5,49.696,104.167
19.2,391.667,27.7,245.833,34.2,208.333,40.2,162.5,45.2,104.167,49.7,70.8333
19.204,475,27.704,208.333,34.204,225,40.204,150,45.204,95.8333,49.704,108.333
19.208,466.667,27.708,195.833,34.208,295.833,40.208,204.167,45.208,95.8333,49.708,137.5
19.212,483.333,27.712,212.5,34.212,258.333,40.212,179.167,45.212,75,49.712,116.667
19.216,420.833,27.716,187.5,34.216,266.667,40.216,129.167,45.216,104.167,49.716,116.667
19.22,537.5,27.72,216.667,34.22,225,40.22,166.667,45.22,62.5,49.72,120.833
19.224,370.833,27.724,204.167,34.224,325,40.224,137.5,45.224,83.3333,49.724,79.1667
19.228,475,27.728,162.5,34.228,212.5,40.228,145.833,45.228,83.3333,49.728,125
19.232,445.833,27.732,200,34.232,295.833,40.232,141.667,45.232,116.667,49.732,79.1667
19.236,483.333,27.736,170.833,34.236,333.333,40.236,162.5,45.236,100,49.736,83.3333
19.24,400,27.74,258.333,34.24,287.5,40.24,150,45.24,95.8333,49.74,95.8333
19.244,491.667,27.744,195.833,34.244,254.167,40.244,145.833,45.244,91.6667,49.744,112.5
19.248,433.333,27.748,191.667,34.248,275,40.248,120.833,45.248,129.167,49.748,91.6667
19.252,475,27.752,175,34.252,362.5,40.252,187.5,45.252,83.3333,49.752,95.8333
19.256,445.833,27.756,233.333,34.256,312.5,40.256,191.667,45.256,112.5,49.756,108.333
19.26,570.833,27.76,158.333,34.26,300,40.26,183.333,45.26,91.6667,49.76,104.167
19.264,350,27.764,245.833,34.264,275,40.264,120.833,45.264,116.667,49.764,108.333
19.268,575,27.768,229.167,34.268,333.333,40.268,166.667,45.268,100,49.768,83.3333
19.272,412.5,27.772,158.333,34.272,212.5,40.272,191.667,45.272,112.5,49.772,83.3333
19.276,558.333,27.776,212.5,34.276,262.5,40.276,129.167,45.276,62.5,49.776,108.333
19.28,491.667,27.78,200,34.28,287.5,40.28,158.333,45.28,108.333,49.78,133.333
19.284,770.833,27.784,212.5,34.284,275,40.284,137.5,45.284,100,49.784,112.5
19.288,454.167,27.788,233.333,34.288,266.667,40.288,137.5,45.288,95.8333,49.788,75
19.292,483.333,27.792,212.5,34.292,295.833,40.292,175,45.292,95.8333,49.792,70.8333
19.296,470.833,27.796,233.333,34.296,304.167,40.296,137.5,45.296,104.167,49.796,95.8333
19.3,645.833,27.8,229.167,34.3,300,40.3,150,45.3,45.8333,49.8,120.833
19.304,433.333,27.804,162.5,34.304,320.833,40.304,129.167,45.304,75,49.804,91.6667
19.308,500,27.808,312.5,34.308,337.5,40.308,195.833,45.308,145.833,49.808,137.5
19.312,512.5,27.812,154.167,34.312,312.5,40.312,195.833,45.312,116.667,49.812,87.5
19.316,545.833,27.816,216.667,34.316,295.833,40.316,154.167,45.316,116.667,49.816,112.5
19.32,462.5,27.82,204.167,34.32,237.5,40.32,104.167,45.32,91.6667,49.82,120.833
19.324,533.333,27.824,212.5,34.324,283.333,40.324,170.833,45.324,41.6667,49.824,104.167
19.328,579.167,27.828,200,34.328,312.5,40.328,208.333,45.328,83.3333,49.828,83.3333
19.332,425,27.832,237.5,34.332,325,40.332,158.333,45.332,87.5,49.832,62.5
19.336,587.5,27.836,270.833,34.336,287.5,40.336,154.167,45.336,125,49.836,91.6667
19.34,479.167,27.84,262.5,34.34,266.667,40.34,104.167,45.34,104.167,49.84,150
19.344,654.167,27.844,212.5,34.344,275,40.344,145.833,45.344,87.5,49.844,108.333
19.348,541.667,27.848,241.667,34.348,237.5,40.348,133.333,45.348,54.1667,49.848,91.6667
19.352,566.667,27.852,225,34.352,241.667,40.352,150,45.352,108.333,49.852,87.5
19.356,483.333,27.856,220.833,34.356,241.667,40.356,141.667,45.356,75,49.856,100
19.36,637.5,27.86,262.5,34.36,283.333,40.36,187.5,45.36,100,49.86,58.3333
19.364,545.833,27.864,237.5,34.364,325,40.364,183.333,45.364,54.1667,49.864,133.333
19.368,641.667,27.868,229.167,34.368,266.667,40.368,170.833,45.368,95.8333,49.868,108.333
19.372,550,27.872,250,34.372,270.833,40.372,133.333,45.372,83.3333,49.872,116.667
19.376,625,27.876,241.667,34.376,283.333,40.376,145.833,45.376,62.5,49.876,108.333
19.38,537.5,27.88,287.5,34.38,329.167,40.38,141.667,45.38,70.8333,49.88,133.333
19.384,616.667,27.884,175,34.384,375,40.384,125,45.384,133.333,49.884,100
19.388,520.833,27.888,175,34.388,279.167,40.388,162.5,45.388,87.5,49.888,70.8333
19.392,604.167,27.892,254.167,34.392,245.833,40.392,116.667,45.392,112.5,49.892,100
19.396,570.833,27.896,233.333,34.396,362.5,40.396,112.5,45.396,54.1667,49.896,100
19.4,612.5,27.9,216.667,34.4,400,40.4,162.5,45.4,75,49.9,104.167
19.404,554.167,27.904,208.333,34.404,212.5,40.404,141.667,45.404,75,49.904,108.333
19.408,666.667,27.908,254.167,34.408,308.333,40.408,145.833,45.408,100,49.908,95.8333
19.412,479.167,27.912,237.5,34.412,283.333,40.412,162.5,45.412,87.5,49.912,120.833
19.416,604.167,27.916,266.667,34.416,304.167,40.416,137.5,45.416,83.3333,49.916,116.667
19.42,525,27.92,212.5,34.42,308.333,40.42,125,45.42,70.8333,49.92,104.167
19.424,450,27.924,208.333,34.424,254.167,40.424,154.167,45.424,104.167,49.924,91.6667
19.428,612.5,27.928,179.167,34.428,287.5,40.428,137.5,45.428,79.1667,49.928,112.5
19.432,512.5,27.932,237.5,34.432,241.667,40.432,154.167,45.432,79.1667,49.932,104.167
19.436,616.667,27.936,283.333,34.436,304.167,40.436,195.833,45.436,87.5,49.936,116.667
19.44,500,27.94,275,34.44,308.333,40.44,150,45.44,150,49.94,116.667
19.444,612.5,27.944,208.333,34.444,304.167,40.444,108.333,45.444,104.167,49.944,87.5
19.448,587.5,27.948,254.167,34.448,337.5,40.448,158.333,45.448,87.5,49.948,137.5
19.452,625,27.952,237.5,34.452,337.5,40.452,191.667,45.452,87.5,49.952,95.8333
19.456,641.667,27.956,208.333,34.456,329.167,40.456,170.833,45.456,79.1667,49.956,179.167
19.46,683.333,27.96,300,34.46,241.667,40.46,120.833,45.46,66.6667,49.96,58.3333
19.464,554.167,27.964,225,34.464,283.333,40.464,87.5,45.464,112.5,49.964,91.6667
19.468,770.833,27.968,275,34.468,304.167,40.468,150,45.468,62.5,49.968,70.8333
19.472,562.5,27.972,275,34.472,325,40.472,175,45.472,133.333,49.972,137.5
19.476,920.833,27.976,245.833,34.476,295.833,40.476,212.5,45.476,108.333,49.976,104.167
19.48,608.333,27.98,258.333,34.48,262.5,40.48,183.333,45.48,112.5,49.98,79.1667
19.484,775,27.984,204.167,34.484,287.5,40.484,183.333,45.484,79.1667,49.984,129.167
19.488,587.5,27.988,250,34.488,300,40.488,141.667,45.488,87.5,49.988,100
19.492,687.5,27.992,279.167,34.492,320.833,40.492,154.167,45.492,100,49.992,104.167
19.496,683.333,27.996,200,34.496,270.833,40.496,108.333,45.496,112.5,49.996,133.333
19.5,637.5,28,237.5,34.5,337.5,40.5,191.667,45.5,66.6667,50,79.1667
19.504,666.667,28.004,225,34.504,291.667,40.504,154.167,45.504,120.833,50.004,95.8333
19.508,654.167,28.008,245.833,34.508,220.833,40.508,125,45.508,66.6667,50.008,133.333
19.512,695.833,28.012,250,34.512,395.833,40.512,133.333,45.512,95.8333,50.012,70.8333
19.516,650,28.016,225,34.516,287.5,40.516,204.167,45.516,79.1667,50.016,100
19.52,691.667,28.02,208.333,34.52,308.333,40.52,141.667,45.52,79.1667,50.02,66.6667
19.524,595.833,28.024,266.667,34.524,308.333,40.524,112.5,45.524,104.167,50.024,145.833
19.528,679.167,28.028,191.667,34.528,316.667,40.528,154.167,45.528,83.3333,50.028,137.5
19.532,616.667,28.032,216.667,34.532,316.667,40.532,133.333,45.532,104.167,50.032,112.5
19.536,675,28.036,208.333,34.536,325,40.536,175,45.536,91.6667,50.036,137.5
19.54,616.667,28.04,329.167,34.54,337.5,40.54,120.833,45.54,62.5,50.04,141.667
19.544,741.667,28.044,200,34.544,391.667,40.544,162.5,45.544,75,50.044,116.667
19.548,675,28.048,308.333,34.548,345.833,40.548,166.667,45.548,50,50.048,87.5
19.552,850,28.052,266.667,34.552,320.833,40.552,200,45.552,95.8333,50.052,112.5
19.556,608.333,28.056,262.5,34.556,275,40.556,170.833,45.556,87.5,50.056,125
19.56,833.333,28.06,287.5,34.56,279.167,40.56,166.667,45.56,95.8333,50.06,100
19.564,712.5,28.064,254.167,34.564,345.833,40.564,216.667,45.564,54.1667,50.064,120.833
19.568,787.5,28.068,270.833,34.568,295.833,40.568,150,45.568,104.167,50.068,75
19.572,570.833,28.072,216.667,34.572,270.833,40.572,100,45.572,70.8333,50.072,125
19.576,891.667,28.076,237.5,34.576,345.833,40.576,145.833,45.576,125,50.076,95.8333
19.58,625,28.08,254.167,34.58,333.333,40.58,158.333,45.58,112.5,50.08,120.833
19.584,754.167,28.084,237.5,34.584,341.667,40.584,141.667,45.584,112.5,50.084,104.167
19.588,725,28.088,250,34.588,325,40.588,141.667,45.588,75,50.088,108.333
19.592,750,28.092,270.833,34.592,308.333,40.592,137.5,45.592,125,50.092,129.167
19.596,687.5,28.096,233.333,34.596,350,40.596,183.333,45.596,100,50.096,91.6667
19.6,779.167,28.1,295.833,34.6,283.333,40.6,137.5,45.6,66.6667,50.1,116.667
19.604,683.333,28.104,270.833,34.604,325,40.604,204.167,45.604,133.333,50.104,95.8333
19.608,804.167,28.108,275,34.608,341.667,40.608,154.167,45.608,91.6667,50.108,108.333
19.612,670.833,28.112,233.333,34.612,350,40.612,129.167,45.612,79.1667,50.112,125
19.616,716.667,28.116,200,34.616,337.5,40.616,204.167,45.616,91.6667,50.116,100
19.62,775,28.12,250,34.62,433.333,40.62,175,45.62,83.3333,50.12,79.1667
19.624,716.667,28.124,241.667,34.624,354.167,40.624,225,45.624,87.5,50.124,87.5
19.628,745.833,28.128,250,34.628,358.333,40.628,133.333,45.628,75,50.128,129.167
19.632,687.5,28.132,254.167,34.632,300,40.632,158.333,45.632,87.5,50.132,116.667
19.636,650,28.136,270.833,34.636,358.333,40.636,166.667,45.636,100,50.136,95.8333
19.64,741.667,28.14,308.333,34.64,312.5,40.64,141.667,45.64,87.5,50.14,108.333
19.644,866.667,28.144,254.167,34.644,354.167,40.644,116.667,45.644,154.167,50.144,108.333
19.648,779.167,28.148,308.333,34.648,412.5,40.648,179.167,45.648,133.333,50.148,108.333
19.652,925,28.152,325,34.652,345.833,40.652,229.167,45.652,87.5,50.152,116.667
19.656,733.333,28.156,358.333,34.656,320.833,40.656,175,45.656,100,50.156,116.667
19.66,870.833,28.16,304.167,34.66,320.833,40.66,145.833,45.66,137.5,50.16,91.6667
19.664,754.167,28.164,287.5,34.664,387.5,40.664,191.667,45.664,108.333,50.164,108.333
19.668,925,28.168,266.667,34.668,358.333,40.668,200,45.668,141.667,50.168,87.5
19.672,862.5,28.172,283.333,34.672,358.333,40.672,183.333,45.672,87.5,50.172,116.667
19.676,979.167,28.176,283.333,34.676,287.5,40.676,162.5,45.676,95.8333,50.176,104.167
19.68,887.5,28.18,341.667,34.68,383.333,40.68,191.667,45.68,91.6667,50.18,87.5
19.684,1041.67,28.184,220.833,34.684,345.833,40.684,241.667,45.684,125,50.184,95.8333
19.688,887.5,28.188,258.333,34.688,400,40.688,175,45.688,120.833,50.188,100
19.692,991.667,28.192,245.833,34.692,287.5,40.692,187.5,45.692,116.667,50.192,120.833
19.696,825,28.196,316.667,34.696,333.333,40.696,229.167,45.696,108.333,50.196,133.333
19.7,883.333,28.2,300,34.7,300,40.7,220.833,45.7,129.167,50.2,104.167
19.704,783.333,28.204,229.167,34.704,375,40.704,195.833,45.704,104.167,50.204,129.167
19.708,987.5,28.208,308.333,34.708,341.667,40.708,154.167,45.708,112.5,50.208,87.5
19.712,875,28.212,291.667,34.712,400,40.712,145.833,45.712,125,50.212,150
19.716,854.167,28.216,291.667,34.716,375,40.716,145.833,45.716,112.5,50.216,158.333
19.72,845.833,28.22,275,34.72,437.5,40.72,233.333,45.72,91.6667,50.22,129.167
19.724,925,28.224,291.667,34.724,295.833,40.724,208.333,45.724,104.167,50.224,129.167
19.728,887.5,28.228,275,34.728,329.167,40.728,170.833,45.728,112.5,50.228,104.167
19.732,829.167,28.232,370.833,34.732,391.667,40.732,175,45.732,79.1667,50.232,145.833
19.736,1008.33,28.236,262.5,34.736,441.667,40.736,179.167,45.736,112.5,50.236,120.833
19.74,862.5,28.24,245.833,34.74,370.833,40.74,200,45.74,166.667,50.24,108.333
19.744,770.833,28.244,308.333,34.744,329.167,40.744,216.667,45.744,112.5,50.244,104.167
19.748,925,28.248,270.833,34.748,379.167,40.748,225,45.748,129.167,50.248,125
19.752,912.5,28.252,329.167,34.752,345.833,40.752,229.167,45.752,129.167,50.252,133.333
19.756,929.167,28.256,370.833,34.756,329.167,40.756,245.833,45.756,158.333,50.256,104.167
19.76,1137.5,28.26,362.5,34.76,387.5,40.76,287.5,45.76,125,50.26,125
19.764,1050,28.264,308.333,34.764,387.5,40.764,191.667,45.764,104.167,50.264,95.8333
19.768,1166.67,28.268,266.667,34.768,425,40.768,270.833,45.768,100,50.268,137.5
19.772,1166.67,28.272,304.167,34.772,354.167,40.772,237.5,45.772,133.333,50.272,91.6667
19.776,1316.67,28.276,370.833,34.776,308.333,40.776,283.333,45.776,79.1667,50.276,120.833
19.78,1158.33,28.28,366.667,34.78,320.833,40.78,266.667,45.78,116.667,50.28,125
19.784,1216.67,28.284,341.667,34.784,362.5,40.784,287.5,45.784,154.167,50.284,133.333
19.788,1145.83,28.288,375,34.788,408.333,40.788,233.333,45.788,141.667,50.288,100
19.792,1229.17,28.292,379.167,34.792,429.167,40.792,333.333,45.792,120.833,50.292,141.667
19.796,1337.5,28.296,320.833,34.796,341.667,40.796,320.833,45.796,116.667,50.296,104.167
19.8,1237.5,28.3,366.667,34.8,362.5,40.8,341.667,45.8,100,50.3,125
19.804,1200,28.304,395.833,34.804,329.167,40.804,312.5,45.804,141.667,50.304,145.833
19.808,1341.67,28.308,337.5,34.808,425,40.808,358.333,45.808,179.167,50.308,125
19.812,1162.5,28.312,366.667,34.812,391.667,40.812,329.167,45.812,170.833,50.312,104.167
19.816,1270.83,28.316,345.833,34.816,391.667,40.816,370.833,45.816,170.833,50.316,120.833
19.82,1229.17,28.32,375,34.82,358.333,40.82,345.833,45.82,120.833,50.32,133.333
19.824,1308.33,28.324,333.333,34.824,400,40.824,395.833,45.824,150,50.324,133.333
19.828,1229.17,28.328,345.833,34.828,404.167,40.828,379.167,45.828,187.5,50.328,141.667
19.832,1233.33,28.332,408.333,34.832,395.833,40.832,437.5,45.832,158.333,50.332,100
19.836,1166.67,28.336,345.833,34.836,483.333,40.836,433.333,45.836,162.5,50.336,104.167
19.84,1412.5,28.34,387.5,34.84,462.5,40.84,437.5,45.84,179.167,50.34,91.6667
19.844,1437.5,28.344,462.5,34.844,454.167,40.844,512.5,45.844,150,50.344,125
19.848,1425,28.348,383.333,34.848,416.667,40.848,633.333,45.848,204.167,50.348,133.333
19.852,1583.33,28.352,366.667,34.852,420.833,40.852,554.167,45.852,183.333,50.352,125
19.856,1662.5,28.356,425,34.856,441.667,40.856,720.833,45.856,170.833,50.356,150
19.86,1679.17,28.36,441.667,34.86,437.5,40.86,808.333,45.86,254.167,50.36,112.5
19.864,1870.83,28.364,470.833,34.864,466.667,40.864,729.167,45.864,233.333,50.364,129.167
19.868,1879.17,28.368,487.5,34.868,433.333,40.868,887.5,45.868,162.5,50.368,145.833
19.872,2133.33,28.372,504.167,34.872,391.667,40.872,712.5,45.872,216.667,50.372,95.8333
19.876,2125,28.376,558.333,34.876,466.667,40.876,908.333,45.876,220.833,50.376,154.167
19.88,2150,28.38,512.5,34.88,466.667,40.88,779.167,45.88,254.167,50.38,170.833
19.884,2295.83,28.384,512.5,34.884,525,40.884,958.333,45.884,241.667,50.384,120.833
19.888,2254.17,28.388,620.833,34.888,462.5,40.888,925,45.888,241.667,50.388,195.833
19.892,2287.5,28.392,566.667,34.892,466.667,40.892,1137.5,45.892,233.333,50.392,145.833
19.896,2545.83,28.396,600,34.896,383.333,40.896,1183.33,45.896,287.5,50.396,204.167
19.9,2429.17,28.4,541.667,34.9,479.167,40.9,1233.33,45.9,270.833,50.4,154.167
19.904,2462.5,28.404,637.5,34.904,416.667,40.904,1337.5,45.904,220.833,50.404,170.833
19.908,2450,28.408,483.333,34.908,487.5,40.908,1312.5,45.908,279.167,50.408,183.333
19.912,2204.17,28.412,641.667,34.912,537.5,40.912,1608.33,45.912,266.667,50.412,179.167
19.916,2429.17,28.416,662.5,34.916,445.833,40.916,1670.83,45.916,312.5,50.416,129.167
19.92,2341.67,28.42,754.167,34.92,475,40.92,1858.33,45.92,308.333,50.42,195.833
19.924,2445.83,28.424,658.333,34.924,420.833,40.924,1758.33,45.924,329.167,50.424,208.333
19.928,2362.5,28.428,712.5,34.928,508.333,40.928,2066.67,45.928,395.833,50.428,175
19.932,2545.83,28.432,816.667,34.932,495.833,40.932,2004.17,45.932,395.833,50.432,158.333
19.936,2337.5,28.436,737.5,34.936,570.833,40.936,2362.5,45.936,366.667,50.436,112.5
19.94,2925,28.44,804.167,34.94,537.5,40.94,2266.67,45.94,458.333,50.44,112.5
19.944,2829.17,28.444,929.167,34.944,508.333,40.944,2762.5,45.944,425,50.444,166.667
19.948,3387.5,28.448,950,34.948,425,40.948,2408.33,45.948,508.333,50.448,212.5
19.952,3062.5,28.452,1208.33,34.952,520.833,40.952,3241.67,45.952,508.333,50.452,200
19.956,3608.33,28.456,1079.17,34.956,462.5,40.956,2750,45.956,558.333,50.456,166.667
19.96,3695.83,28.46,1270.83,34.96,487.5,40.96,3191.67,45.96,554.167,50.46,137.5
19.964,4516.67,28.464,1333.33,34.964,541.667,40.964,2787.5,45.964,679.167,50.464,175
19.968,4175,28.468,1350,34.968,566.667,40.968,3333.33,45.968,633.333,50.468,166.667
19.972,4987.5,28.472,1441.67,34.972,545.833,40.972,2758.33,45.972,662.5,50.472,116.667
19.976,4845.83,28.476,1233.33,34.976,662.5,40.976,3075,45.976,712.5,50.476,208.333
19.98,5504.17,28.48,1641.67,34.98,537.5,40.98,2508.33,45.98,775,50.48,179.167
19.984,5908.33,28.484,1675,34.984,533.333,40.984,2770.83,45.984,720.833,50.484,216.667
19.988,6000,28.488,1787.5,34.988,608.333,40.988,2258.33,45.988,829.167,50.488,150
19.992,5812.5,28.492,1695.83,34.992,604.167,40.992,2462.5,45.992,750,50.492,237.5
19.996,6479.17,28.496,1904.17,34.996,629.167,40.996,2033.33,45.996,950,50.496,187.5
20,6200,28.5,1937.5,35,641.667,41,1991.67,46,829.167,50.5,154.167
20.004,6145.83,28.504,1762.5,35.004,666.667,41.004,1745.83,46.004,908.333,50.504,179.167
20.008,6437.5,28.508,1912.5,35.008,600,41.008,1525,46.008,958.333,50.508,195.833
20.012,6320.83,28.512,2145.83,35.012,595.833,41.012,1604.17,46.012,1204.17,50.512,254.167
20.016,6879.17,28.516,2200,35.016,708.333,41.016,1262.5,46.016,1116.67,50.516,220.833
20.02,6275,28.52,2295.83,35.02,741.667,41.02,1191.67,46.02,1175,50.52,220.833
20.024,6600,28.524,2445.83,35.024,687.5,41.024,1100,46.024,1379.17,50.524,208.333
20.028,6891.67,28.528,2641.67,35.028,712.5,41.028,975,46.028,1266.67,50.528,237.5
20.032,7145.83,28.532,2629.17,35.032,733.333,41.032,883.333,46.032,1358.33,50.532,237.5
20.036,7708.33,28.536,3041.67,35.036,783.333,41.036,925,46.036,1416.67,50.536,225
20.04,8258.33,28.54,3245.83,35.04,850,41.04,654.167,46.04,1495.83,50.54,200
20.044,8200,28.544,3641.67,35.044,887.5,41.044,800,46.044,1375,50.544,250
20.048,9716.67,28.548,3829.17,35.048,900,41.048,695.833,46.048,1520.83,50.548,245.833
20.052,10237.5,28.552,4191.67,35.052,950,41.052,650,46.052,1508.33,50.552,262.5
20.056,11458.3,28.556,4612.5,35.056,966.667,41.056,570.833,46.056,1350,50.556,279.167
20.06,12720.8,28.56,4750,35.06,1037.5,41.06,625,46.06,1437.5,50.56,254.167
20.064,13666.7,28.564,5425,35.064,841.667,41.064,450,46.064,1354.17,50.564,237.5
20.068,14725,28.568,5525,35.068,916.667,41.068,545.833,46.068,1470.83,50.568,287.5
20.072,14970.8,28.572,6104.17,35.072,1129.17,41.072,470.833,46.072,1325,50.572,295.833
20.076,17758.3,28.576,6404.17,35.076,1000,41.076,520.833,46.076,1275,50.576,262.5
20.08,17358.3,28.58,6954.17,35.08,1104.17,41.08,516.667,46.08,1358.33,50.58,312.5
20.084,20337.5,28.584,6987.5,35.084,1220.83,41.084,445.833,46.084,1133.33,50.584,358.333
20.088,19175,28.588,7541.67,35.088,1170.83,41.088,445.833,46.088,1320.83,50.588,316.667
20.092,22700,28.592,8050,35.092,1341.67,41.092,425,46.092,1108.33,50.592,345.833
20.096,21325,28.596,8716.67,35.096,1362.5,41.096,454.167,46.096,970.833,50.596,325
20.1,24695.8,28.6,9095.83,35.1,1345.83,41.1,454.167,46.1,995.833,50.6,387.5
20.104,22466.7,28.604,9625,35.104,1600,41.104,441.667,46.104,791.667,50.604,400
20.108,26579.2,28.608,10162.5,35.108,1720.83,41.108,512.5,46.108,812.5,50.608,420.833
20.112,25341.7,28.612,10400,35.112,1904.17,41.112,504.167,46.112,762.5,50.612,433.333
20.116,27950,28.616,12145.8,35.116,1820.83,41.116,604.167,46.116,641.667,50.616,391.667
20.12,28416.7,28.62,11987.5,35.12,2066.67,41.12,475,46.12,766.667,50.62,466.667
20.124,31562.5,28.624,13345.8,35.124,2054.17,41.124,458.333,46.124,583.333,50.624,504.167
20.128,33100,28.628,13225,35.128,2233.33,41.128,595.833,46.128,691.667,50.628,612.5
20.132,36754.2,28.632,15841.7,35.132,2287.5,41.132,575,46.132,629.167,50.632,591.667
20.136,40145.8,28.636,15062.5,35.136,2250,41.136,687.5,46.136,570.833,50.636,475
20.14,43058.3,28.64,16979.2,35.14,2858.33,41.14,637.5,46.14,470.833,50.64,612.5
20.144,50029.2,28.644,16237.5,35.144,2866.67,41.144,716.667,46.144,491.667,50.644,687.5
20.148,48995.8,28.648,18087.5,35.148,3020.83,41.148,666.667,46.148,433.333,50.648,779.167
20.152,60454.2,28.652,17925,35.152,3179.17,41.152,908.333,46.152,379.167,50.652,762.5
20.156,55575,28.656,18595.8,35.156,3120.83,41.156,662.5,46.156,375,50.656,708.333
20.16,69625,28.66,17750,35.16,3487.5,41.16,895.833,46.16,341.667,50.66,729.167
20.164,58433.3,28.664,17462.5,35.164,3408.33,41.164,804.167,46.164,391.667,50.664,1037.5
20.168,73325,28.668,16479.2,35.168,3970.83,41.168,958.333,46.168,395.833,50.668,1025
20.172,56554.2,28.672,14695.8,35.172,3912.5,41.172,933.333,46.172,333.333,50.672,1008.33
20.176,70079.2,28.676,15254.2,35.176,4120.83,41.176,1237.5,46.176,416.667,50.676,1050
20.18,49991.7,28.68,13254.2,35.18,4370.83,41.18,1025,46.18,320.833,50.68,1133.33
20.184,60941.7,28.684,13016.7,35.184,4987.5,41.184,1145.83,46.184,345.833,50.684,1345.83
20.188,43800,28.688,10562.5,35.188,5108.33,41.188,1075,46.188,337.5,50.688,1383.33
20.192,48504.2,28.692,11225,35.192,5658.33,41.192,1304.17,46.192,254.167,50.692,1491.67
20.196,34850,28.696,8654.17,35.196,5825,41.196,1191.67,46.196,295.833,50.696,1695.83
20.2,38016.7,28.7,9141.67,35.2,6420.83,41.2,1433.33,46.2,345.833,50.7,1625
20.204,28050,28.704,6683.33,35.204,6812.5,41.204,1475,46.204,287.5,50.704,1816.67
20.208,27737.5,28.708,7287.5,35.208,7716.67,41.208,1458.33,46.208,300,50.708,1979.17
20.212,23112.5,28.712,5291.67,35.212,8445.83,41.212,1591.67,46.212,345.833,50.712,1995.83
20.216,21687.5,28.716,6029.17,35.216,9120.83,41.216,1520.83,46.216,279.167,50.716,2220.83
20.22,18975,28.72,4637.5,35.22,10095.8,41.22,1620.83,46.22,254.167,50.72,2308.33
20.224,18854.2,28.724,4929.17,35.224,10466.7,41.224,1654.17,46.224,325,50.724,2595.83
20.228,17712.5,28.728,4604.17,35.228,11750,41.228,1654.17,46.228,354.167,50.728,2600
20.232,17308.3,28.732,4729.17,35.232,12320.8,41.232,1600,46.232,254.167,50.732,2783.33
20.236,17733.3,28.736,4200,35.236,13333.3,41.236,1641.67,46.236,341.667,50.736,2670.83
20.24,18841.7,28.74,4625,35.24,14245.8,41.24,1345.83,46.24,329.167,50.74,3154.17
20.244,20358.3,28.744,4050,35.244,15416.7,41.244,1595.83,46.244,333.333,50.744,3287.5
20.248,19912.5,28.748,4620.83,35.248,15937.5,41.248,1216.67,46.248,354.167,50.748,3329.17
20.252,23512.5,28.752,4504.17,35.252,17516.7,41.252,1591.67,46.252,408.333,50.752,3491.67
20.256,21983.3,28.756,4808.33,35.256,17941.7,41.256,1120.83,46.256,387.5,50.756,3262.5
20.26,27487.5,28.76,4745.83,35.26,19708.3,41.26,1245.83,46.26,412.5,50.76,3362.5
20.264,25383.3,28.764,5245.83,35.264,20412.5,41.264,904.167,46.264,445.833,50.764,3529.17
20.268,32237.5,28.768,5141.67,35.268,21175,41.268,1100,46.268,483.333,50.768,3345.83
20.272,28362.5,28.772,5616.67,35.272,21995.8,41.272,804.167,46.272,445.833,50.772,3275
20.276,36395.8,28.776,5720.83,35.276,23025,41.276,937.5,46.276,504.167,50.776,2983.33
20.28,30558.3,28.78,6025,35.28,23770.8,41.28,766.667,46.28,416.667,50.78,3158.33
20.284,38104.2,28.784,6241.67,35.284,24341.7,41.284,670.833,46.284,479.167,50.784,3025
20.288,31300,28.788,6729.17,35.288,24112.5,41.288,612.5,46.288,500,50.788,2550
20.292,37620.8,28.792,7158.33,35.292,23720.8,41.292,533.333,46.292,537.5,50.792,2787.5
20.296,29662.5,28.796,7150,35.296,24233.3,41.296,533.333,46.296,545.833,50.796,2445.83
20.3,34045.8,28.8,7662.5,35.3,22012.5,41.3,495.833,46.3,662.5,50.8,2270.83
20.304,26375,28.804,7566.67,35.304,21887.5,41.304,470.833,46.304,650,50.804,2220.83
20.308,28475,28.808,8345.83,35.308,20270.8,41.308,391.667,46.308,679.167,50.808,2075
20.312,22137.5,28.812,8129.17,35.312,19295.8,41.312,408.333,46.312,741.667,50.812,1879.17
20.316,21583.3,28.816,9250,35.316,17783.3,41.316,354.167,46.316,725,50.816,1583.33
20.32,17054.2,28.82,8570.83,35.32,16441.7,41.32,320.833,46.32,775,50.82,1550
20.324,15237.5,28.824,9254.17,35.324,14970.8,41.324,270.833,46.324,716.667,50.824,1633.33
20.328,13450,28.828,8737.5,35.328,13337.5,41.328,308.333,46.328,779.167,50.828,1329.17
20.332,10516.7,28.832,9887.5,35.332,12354.2,41.332,245.833,46.332,891.667,50.832,1304.17
20.336,9962.5,28.836,8941.67,35.336,10554.2,41.336,270.833,46.336,754.167,50.836,1225
20.34,7716.67,28.84,9475,35.34,9679.17,41.34,220.833,46.34,812.5,50.84,987.5
20.344,7229.17,28.844,8100,35.344,8187.5,41.344,295.833,46.344,908.333,50.844,912.5
20.348,5525,28.848,8462.5,35.348,7979.17,41.348,250,46.348,891.667,50.848,975
20.352,5558.33,28.852,7462.5,35.352,6962.5,41.352,150,46.352,812.5,50.852,795.833
20.356,4495.83,28.856,7520.83,35.356,6291.67,41.356,204.167,46.356,887.5,50.856,858.333
20.36,4562.5,28.86,6662.5,35.36,5533.33,41.36,250,46.36,816.667,50.86,625
20.364,3341.67,28.864,5800,35.364,5604.17,41.364,216.667,46.364,820.833,50.864,733.333
20.368,4133.33,28.868,5416.67,35.368,4912.5,41.368,254.167,46.368,737.5,50.868,537.5
20.372,3187.5,28.872,4829.17,35.372,4712.5,41.372,166.667,46.372,816.667,50.872,616.667
20.376,3225,28.876,4508.33,35.376,4158.33,41.376,254.167,46.376,762.5,50.876,575
20.38,2637.5,28.88,3720.83,35.38,4166.67,41.38,241.667,46.38,800,50.88,437.5
20.384,3145.83,28.884,3662.5,35.384,4141.67,41.384,245.833,46.384,629.167,50.884,525
20.388,2266.67,28.888,2766.67,35.388,4075,41.388,120.833,46.388,612.5,50.888,483.333
20.392,2654.17,28.892,2583.33,35.392,4125,41.392,241.667,46.392,600,50.892,554.167
20.396,2370.83,28.896,2250,35.396,4020.83,41.396,195.833,46.396,583.333,50.896,425
20.4,2316.67,28.9,2479.17,35.4,4325,41.4,187.5,46.4,537.5,50.9,479.167
20.404,2066.67,28.904,1687.5,35.404,4291.67,41.404,208.333,46.404,525,50.904,554.167
20.408,2133.33,28.908,1625,35.408,4400,41.408,179.167,46.408,562.5,50.908,454.167
20.412,1687.5,28.912,1391.67,35.412,4558.33,41.412,162.5,46.412,429.167,50.912,450
20.416,1795.83,28.916,1354.17,35.416,4666.67,41.416,179.167,46.416,412.5,50.916,512.5
20.42,1662.5,28.92,1208.33,35.42,4645.83,41.42,150,46.42,333.333,50.92,487.5
20.424,1708.33,28.924,1233.33,35.424,5112.5,41.424,183.333,46.424,333.333,50.924,512.5
20.428,1575,28.928,866.667,35.428,5412.5,41.428,137.5,46.428,362.5,50.928,450
20.432,1462.5,28.932,1083.33,35.432,5662.5,41.432,154.167,46.432,250,50.932,387.5
20.436,1633.33,28.936,879.167,35.436,5704.17,41.436,158.333,46.436,325,50.936,450
20.44,1470.83,28.94,895.833,35.44,6279.17,41.44,137.5,46.44,300,50.94,445.833
20.444,1633.33,28.944,687.5,35.444,6416.67,41.444,187.5,46.444,266.667,50.944,433.333
20.448,1433.33,28.948,737.5,35.448,6795.83,41.448,150,46.448,229.167,50.948,412.5
20.452,1595.83,28.952,741.667,35.452,7141.67,41.452,145.833,46.452,216.667,50.952,504.167
20.456,1525,28.956,720.833,35.456,7450,41.456,166.667,46.456,233.333,50.956,516.667
20.46,1620.83,28.96,712.5,35.46,8070.83,41.46,162.5,46.46,204.167,50.96,454.167
20.464,1425,28.964,591.667,35.464,8362.5,41.464,195.833,46.464,212.5,50.964,433.333
20.468,1729.17,28.968,604.167,35.468,8870.83,41.468,150,46.468,250,50.968,441.667
20.472,1391.67,28.972,691.667,35.472,9370.83,41.472,129.167,46.472,191.667,50.972,500
20.476,1675,28.976,600,35.476,10225,41.476,154.167,46.476,170.833,50.976,558.333
20.48,1458.33,28.98,537.5,35.48,10258.3,41.48,183.333,46.48,162.5,50.98,520.833
20.484,1566.67,28.984,629.167,35.484,11695.8,41.484,187.5,46.484,191.667,50.984,529.167
20.488,1354.17,28.988,466.667,35.488,11895.8,41.488,137.5,46.488,137.5,50.988,529.167
20.492,1541.67,28.992,616.667,35.492,12562.5,41.492,179.167,46.492,137.5,50.992,491.667
20.496,1283.33,28.996,495.833,35.496,12866.7,41.496,225,46.496,162.5,50.996,587.5
20.5,1441.67,29,520.833,35.5,12983.3,41.5,187.5,46.5,158.333,51,679.167
20.504,1375,29.004,504.167,35.504,13795.8,41.504,154.167,46.504,141.667,51.004,787.5
20.508,1420.83,29.008,587.5,35.508,13500,41.508,175,46.508,137.5,51.008,733.333
20.512,1170.83,29.012,429.167,35.512,13541.7,41.512,212.5,46.512,120.833,51.012,795.833
20.516,1329.17,29.016,366.667,35.516,13158.3,41.516,137.5,46.516,108.333,51.016,854.167
20.52,1104.17,29.02,445.833,35.52,12891.7,41.52,162.5,46.52,108.333,51.02,987.5
20.524,1154.17,29.024,441.667,35.524,11904.2,41.524,137.5,46.524,137.5,51.024,1095.83
20.528,1091.67,29.028,450,35.528,11750,41.528,162.5,46.528,112.5,51.028,1070.83
20.532,1254.17,29.032,420.833,35.532,10850,41.532,133.333,46.532,145.833,51.032,987.5
20.536,1262.5,29.036,383.333,35.536,9512.5,41.536,170.833,46.536,170.833,51.036,1154.17
20.54,1158.33,29.04,375,35.54,9025,41.54,150,46.54,108.333,51.04,1208.33
20.544,1220.83,29.044,429.167,35.544,7679.17,41.544,162.5,46.544,95.8333,51.044,1195.83
20.548,1158.33,29.048,433.333,35.548,7358.33,41.548,150,46.548,79.1667,51.048,1425
20.552,1350,29.052,370.833,35.552,6404.17,41.552,129.167,46.552,158.333,51.052,1500
20.556,1229.17,29.056,445.833,35.556,5779.17,41.556,137.5,46.556,100,51.056,1554.17
20.56,1383.33,29.06,391.667,35.56,4800,41.56,179.167,46.56,104.167,51.06,1520.83
20.564,1279.17,29.064,333.333,35.564,4620.83,41.564,112.5,46.564,95.8333,51.064,1595.83
20.568,1333.33,29.068,450,35.568,3733.33,41.568,150,46.568,116.667,51.068,1633.33
20.572,1162.5,29.072,429.167,35.572,3725,41.572,145.833,46.572,133.333,51.072,1754.17
20.576,1595.83,29.076,445.833,35.576,2945.83,41.576,125,46.576,112.5,51.076,1729.17
20.58,1175,29.08,362.5,35.58,2925,41.58,145.833,46.58,137.5,51.08,1725
20.584,1387.5,29.084,458.333,35.584,2475,41.584,154.167,46.584,91.6667,51.084,1954.17
20.588,1254.17,29.088,408.333,35.588,2391.67,41.588,150,46.588,104.167,51.088,1983.33
20.592,1183.33,29.092,491.667,35.592,2225,41.592,150,46.592,133.333,51.092,1937.5
20.596,1037.5,29.096,320.833,35.596,2162.5,41.596,112.5,46.596,108.333,51.096,1820.83
20.6,1362.5,29.1,316.667,35.6,1695.83,41.6,137.5,46.6,79.1667,51.1,1791.67
20.604,1162.5,29.104,337.5,35.604,1654.17,41.604,175,46.604,83.3333,51.104,1816.67
20.608,1300,29.108,350,35.608,1558.33,41.608,91.6667,46.608,100,51.108,1795.83
20.612,1112.5,29.112,379.167,35.612,1416.67,41.612,150,46.612,116.667,51.112,1829.17
20.616,1120.83,29.116,387.5,35.616,1275,41.616,120.833,46.616,104.167,51.116,1683.33
20.62,1062.5,29.12,350,35.62,1245.83,41.62,120.833,46.62,104.167,51.12,1558.33
20.624,1112.5,29.124,333.333,35.624,1162.5,41.624,162.5,46.624,62.5,51.124,1458.33
20.628,1045.83,29.128,304.167,35.628,1183.33,41.628,262.5,46.628,125,51.128,1370.83
20.632,962.5,29.132,429.167,35.632,1050,41.632,158.333,46.632,116.667,51.132,1220.83
20.636,1029.17,29.136,362.5,35.636,987.5,41.636,141.667,46.636,79.1667,51.136,1100
20.64,970.833,29.14,325,35.64,1070.83,41.64,120.833,46.64,137.5,51.14,1158.33
20.644,1154.17,29.144,379.167,35.644,916.667,41.644,170.833,46.644,108.333,51.144,1029.17
20.648,1179.17,29.148,325,35.648,887.5,41.648,104.167,46.648,133.333,51.148,975
20.652,1075,29.152,395.833,35.652,925,41.652,137.5,46.652,79.1667,51.152,920.833
20.656,1025,29.156,420.833,35.656,829.167,41.656,125,46.656,79.1667,51.156,908.333
20.66,1158.33,29.16,362.5,35.66,850,41.66,129.167,46.66,125,51.16,675
20.664,1141.67,29.164,366.667,35.664,891.667,41.664,145.833,46.664,79.1667,51.164,645.833
20.668,1258.33,29.168,362.5,35.668,779.167,41.668,129.167,46.668,112.5,51.168,600
20.672,1120.83,29.172,337.5,35.672,687.5,41.672,125,46.672,95.8333,51.172,591.667
20.676,1225,29.176,420.833,35.676,625,41.676,179.167,46.676,100,51.176,495.833
20.68,1008.33,29.18,329.167,35.68,754.167,41.68,166.667,46.68,83.3333,51.18,462.5
20.684,1220.83,29.184,300,35.684,645.833,41.684,162.5,46.684,75,51.184,495.833
20.688,1145.83,29.188,325,35.688,670.833,41.688,133.333,46.688,100,51.188,458.333
20.692,1254.17,29.192,345.833,35.692,550,41.692,95.8333,46.692,87.5,51.192,370.833
20.696,1008.33,29.196,325,35.696,720.833,41.696,166.667,46.696,133.333,51.196,425
20.7,1183.33,29.2,312.5,35.7,637.5,41.7,162.5,46.7,91.6667,51.2,358.333
20.704,1012.5,29.204,300,35.704,695.833,41.704,129.167,46.704,108.333,51.204,312.5
20.708,1125,29.208,300,35.708,662.5,41.708,145.833,46.708,141.667,51.208,337.5
20.712,1087.5,29.212,258.333,35.712,570.833,41.712,137.5,46.712,129.167,51.212,333.333
20.716,1108.33,29.216,366.667,35.716,570.833,41.716,116.667,46.716,79.1667,51.216,358.333
20.72,975,29.22,250,35.72,641.667,41.72,108.333,46.72,95.8333,51.22,291.667
20.724,1083.33,29.224,391.667,35.724,720.833,41.724,145.833,46.724,100,51.224,295.833
20.728,1033.33,29.228,333.333,35.728,520.833,41.728,145.833,46.728,145.833,51.228,241.667
20.732,1095.83,29.232,295.833,35.732,600,41.732,129.167,46.732,87.5,51.232,308.333
20.736,1087.5,29.236,300,35.736,604.167,41.736,137.5,46.736,50,51.236,233.333
20.74,1045.83,29.24,320.833,35.74,558.333,41.74,120.833,46.74,62.5,51.24,195.833
20.744,1012.5,29.244,316.667,35.744,558.333,41.744,133.333,46.744,87.5,51.244,233.333
20.748,1075,29.248,312.5,35.748,629.167,41.748,112.5,46.748,133.333,51.248,266.667
20.752,979.167,29.252,291.667,35.752,479.167,41.752,195.833,46.752,129.167,51.252,212.5
20.756,987.5,29.256,345.833,35.756,566.667,41.756,137.5,46.756,116.667,51.256,195.833
20.76,1095.83,29.26,287.5,35.76,512.5,41.76,158.333,46.76,75,51.26,200
20.764,1141.67,29.264,391.667,35.764,475,41.764,204.167,46.764,91.6667,51.264,225
20.768,1141.67,29.268,275,35.768,654.167,41.768,166.667,46.768,91.6667,51.268,266.667
20.772,991.667,29.272,250,35.772,500,41.772,100,46.772,70.8333,51.272,220.833
20.776,1250,29.276,316.667,35.776,437.5,41.776,129.167,46.776,70.8333,51.276,179.167
20.78,1070.83,29.28,304.167,35.78,504.167,41.78,133.333,46.78,104.167,51.28,175
20.784,1125,29.284,325,35.784,541.667,41.784,112.5,46.784,83.3333,51.284,170.833
20.788,958.333,29.288,316.667,35.788,458.333,41.788,129.167,46.788,116.667,51.288,179.167
20.792,1108.33,29.292,316.667,35.792,416.667,41.792,154.167,46.792,75,51.292,166.667
20.796,1104.17,29.296,262.5,35.796,412.5,41.796,133.333,46.796,112.5,51.296,241.667
20.8,1179.17,29.3,362.5,35.8,500,41.8,133.333,46.8,83.3333,51.3,150
20.804,979.167,29.304,279.167,35.804,495.833,41.804,133.333,46.804,91.6667,51.304,183.333
20.808,916.667,29.308,279.167,35.808,491.667,41.808,83.3333,46.808,112.5,51.308,162.5
20.812,900,29.312,270.833,35.812,454.167,41.812,100,46.812,108.333,51.312,187.5
20.816,1025,29.316,325,35.816,462.5,41.816,87.5,46.816,95.8333,51.316,162.5
20.82,891.667,29.32,341.667,35.82,470.833,41.82,104.167,46.82,95.8333,51.32,195.833
20.824,962.5,29.324,358.333,35.824,462.5,41.824,137.5,46.824,100,51.324,175
20.828,875,29.328,225,35.828,479.167,41.828,108.333,46.828,70.8333,51.328,145.833
20.832,970.833,29.332,308.333,35.832,433.333,41.832,133.333,46.832,75,51.332,141.667
20.836,1029.17,29.336,266.667,35.836,508.333,41.836,133.333,46.836,62.5,51.336,187.5
20.84,987.5,29.34,345.833,35.84,479.167,41.84,129.167,46.84,70.8333,51.34,195.833
20.844,991.667,29.344,366.667,35.844,587.5,41.844,137.5,46.844,91.6667,51.344,154.167
20.848,1016.67,29.348,300,35.848,408.333,41.848,100,46.848,116.667,51.348,120.833
20.852,850,29.352,316.667,35.852,408.333,41.852,75,46.852,112.5,51.352,116.667
20.856,937.5,29.356,341.667,35.856,470.833,41.856,95.8333,46.856,79.1667,51.356,137.5
20.86,1162.5,29.36,295.833,35.86,412.5,41.86,158.333,46.86,75,51.36,170.833
20.864,862.5,29.364,383.333,35.864,483.333,41.864,100,46.864,112.5,51.364,108.333
20.868,1145.83,29.368,250,35.868,495.833,41.868,116.667,46.868,95.8333,51.368,154.167
20.872,1000,29.372,316.667,35.872,458.333,41.872,108.333,46.872,100,51.372,162.5
20.876,1220.83,29.376,275,35.876,433.333,41.876,129.167,46.876,87.5,51.376,137.5
20.88,1033.33,29.38,275,35.88,466.667,41.88,129.167,46.88,75,51.38,129.167
20.884,1175,29.384,287.5,35.884,312.5,41.884,150,46.884,95.8333,51.384,141.667
20.888,916.667,29.388,295.833,35.888,445.833,41.888,112.5,46.888,100,51.388,145.833
20.892,1037.5,29.392,270.833,35.892,383.333,41.892,170.833,46.892,87.5,51.392,137.5
20.896,979.167,29.396,287.5,35.896,445.833,41.896,166.667,46.896,75,51.396,125
20.9,983.333,29.4,266.667,35.9,362.5,41.9,133.333,46.9,87.5,51.4,129.167
20.904,950,29.404,283.333,35.904,358.333,41.904,150,46.904,100,51.404,125
20.908,904.167,29.408,279.167,35.908,470.833,41.908,104.167,46.908,137.5,51.408,137.5
20.912,829.167,29.412,220.833,35.912,479.167,41.912,104.167,46.912,83.3333,51.412,112.5
20.916,1020.83,29.416,225,35.916,362.5,41.916,116.667,46.916,87.5,51.416,170.833
20.92,770.833,29.42,262.5,35.92,454.167,41.92,129.167,46.92,62.5,51.42,108.333
20.924,1045.83,29.424,325,35.924,425,41.924,133.333,46.924,116.667,51.424,108.333
20.928,912.5,29.428,250,35.928,358.333,41.928,112.5,46.928,87.5,51.428,133.333
20.932,995.833,29.432,258.333,35.932,433.333,41.932,170.833,46.932,79.1667,51.432,166.667
20.936,887.5,29.436,304.167,35.936,387.5,41.936,158.333,46.936,87.5,51.436,137.5
20.94,858.333,29.44,237.5,35.94,470.833,41.94,158.333,46.94,95.8333,51.44,133.333
20.944,920.833,29.444,312.5,35.944,470.833,41.944,158.333,46.944,87.5,51.444,108.333
20.948,945.833,29.448,341.667,35.948,408.333,41.948,125,46.948,104.167,51.448,145.833
20.952,1041.67,29.452,300,35.952,354.167,41.952,120.833,46.952,91.6667,51.452,154.167
20.956,933.333,29.456,354.167,35.956,420.833,41.956,154.167,46.956,54.1667,51.456,116.667
20.96,962.5,29.46,262.5,35.96,429.167,41.96,141.667,46.96,120.833,51.46,129.167
20.964,966.667,29.464,250,35.964,383.333,41.964,79.1667,46.964,112.5,51.464,87.5
20.968,1016.67,29.468,304.167,35.968,362.5,41.968,100,46.968,112.5,51.468,91.6667
20.972,920.833,29.472,300,35.972,375,41.972,95.8333,46.972,70.8333,51.472,112.5
20.976,1112.5,29.476,233.333,35.976,429.167,41.976,75,46.976,120.833,51.476,150
20.98,916.667,29.48,291.667,35.98,354.167,41.98,141.667,46.98,83.3333,51.48,141.667
20.984,916.667,29.484,383.333,35.984,333.333,41.984,116.667,46.984,100,51.484,129.167
20.988,1054.17,29.488,250,35.988,370.833,41.988,145.833,46.988,45.8333,51.488,108.333
20.992,1187.5,29.492,312.5,35.992,370.833,41.992,104.167,46.992,95.8333,51.492,104.167
20.996,875,29.496,212.5,35.996,525,41.996,150,46.996,70.8333,51.496,104.167
21,1158.33,29.5,337.5,36,458.333,42,154.167,47,112.5,51.5,125