File: data/modified_WA/fitting.csv
200thetas,200intensity,211thetas,211intensity,220thetas,220intensity,310thetas,310intensity,222thetas,222intensity
27.5,0.00168,34.0,0.00120045,40.0,0.00221651,45.0,0.00297935,49.5,0.00158618
27.504,0.00169174,34.004,0.00120796,40.004,0.00223503,45.004,0.00300213,49.504,0.0015963
27.508,0.00170361,34.008,0.00121554,40.008,0.00225378,45.008,0.00302518,49.508,0.00160651
27.512,0.0017156,34.012,0.00122319,40.012,0.00227277,45.012,0.00304849,49.512,0.00161683
27.516,0.00172772,34.016,0.00123092,40.016,0.00229199,45.016,0.00307208,49.516,0.00162724
27.52,0.00173997,34.02,0.00123872,40.02,0.00231147,45.02,0.00309594,49.52,0.00163775
27.524,0.00175235,34.024,0.00124659,40.024,0.00233119,45.024,0.00312007,49.524,0.00164837
27.528,0.00176486,34.028,0.00125454,40.028,0.00235116,45.028,0.0031445,49.528,0.00165909
27.532,0.0017775,34.032,0.00126257,40.032,0.00237139,45.032,0.0031692,49.532,0.00166991
27.536,0.00179028,34.036,0.00127067,40.036,0.00239189,45.036,0.0031942,49.536,0.00168084
27.54,0.0018032,34.04,0.00127885,40.04,0.00241265,45.04,0.0032195,49.54,0.00169188
27.544,0.00181626,34.044,0.00128711,40.044,0.00243368,45.044,0.0032451,49.544,0.00170303
27.548,0.00182946,34.048,0.00129545,40.048,0.00245499,45.048,0.003271,49.548,0.00171429
27.552,0.00184281,34.052,0.00130387,40.052,0.00247658,45.052,0.00329722,49.552,0.00172565
27.556,0.0018563,34.056,0.00131237,40.056,0.00249845,45.056,0.00332375,49.556,0.00173714
27.56,0.00186994,34.06,0.00132096,40.06,0.00252062,45.06,0.00335061,49.56,0.00174874
27.564,0.00188374,34.064,0.00132963,40.064,0.00254308,45.064,0.00337778,49.564,0.00176045
27.568,0.00189768,34.068,0.00133839,40.068,0.00256585,45.068,0.0034053,49.568,0.00177228
27.572,0.00191178,34.072,0.00134723,40.072,0.00258892,45.072,0.00343314,49.572,0.00178423
27.576,0.00192604,34.076,0.00135616,40.076,0.0026123,45.076,0.00346133,49.576,0.00179631
27.58,0.00194046,34.08,0.00136518,40.08,0.002636,45.08,0.00348987,49.58,0.0018085
27.584,0.00195504,34.084,0.00137429,40.084,0.00266002,45.084,0.00351877,49.584,0.00182082
27.588,0.00196978,34.088,0.0013835,40.088,0.00268437,45.088,0.00354802,49.588,0.00183327
27.592,0.0019847,34.092,0.00139279,40.092,0.00270906,45.092,0.00357764,49.592,0.00184584
27.596,0.00199978,34.096,0.00140218,40.096,0.00273409,45.096,0.00360763,49.596,0.00185855
27.6,0.00201503,34.1,0.00141167,40.1,0.00275947,45.1,0.003638,49.6,0.00187139
27.604,0.00203046,34.104,0.00142125,40.104,0.00278521,45.104,0.00366875,49.604,0.00188435
27.608,0.00204607,34.108,0.00143092,40.108,0.0028113,45.108,0.0036999,49.608,0.00189746
27.612,0.00206186,34.112,0.0014407,40.112,0.00283777,45.112,0.00373144,49.612,0.0019107
27.616,0.00207783,34.116,0.00145058,40.116,0.0028646,45.116,0.00376339,49.616,0.00192408
27.62,0.00209399,34.12,0.00146056,40.12,0.00289183,45.12,0.00379574,49.62,0.0019376
27.624,0.00211034,34.124,0.00147064,40.124,0.00291944,45.124,0.00382852,49.624,0.00195127
27.628,0.00212688,34.128,0.00148083,40.128,0.00294744,45.128,0.00386172,49.628,0.00196508
27.632,0.00214361,34.132,0.00149113,40.132,0.00297585,45.132,0.00389536,49.632,0.00197903
27.636,0.00216054,34.136,0.00150153,40.136,0.00300468,45.136,0.00392944,49.636,0.00199314
27.64,0.00217768,34.14,0.00151204,40.14,0.00303392,45.14,0.00396396,49.64,0.0020074
27.644,0.00219502,34.144,0.00152266,40.144,0.00306359,45.144,0.00399895,49.644,0.00202181
27.648,0.00221256,34.148,0.0015334,40.148,0.0030937,45.148,0.00403439,49.648,0.00203637
27.652,0.00223032,34.152,0.00154424,40.152,0.00312426,45.152,0.00407031,49.652,0.0020511
27.656,0.00224829,34.156,0.00155521,40.156,0.00315527,45.156,0.00410671,49.656,0.00206598
27.66,0.00226648,34.16,0.00156629,40.16,0.00318674,45.16,0.0041436,49.66,0.00208103
27.664,0.00228489,34.164,0.00157749,40.164,0.00321869,45.164,0.00418099,49.664,0.00209624
27.668,0.00230353,34.168,0.00158881,40.168,0.00325112,45.168,0.00421889,49.668,0.00211162
27.672,0.00232239,34.172,0.00160025,40.172,0.00328404,45.172,0.0042573,49.672,0.00212717
27.676,0.00234149,34.176,0.00161182,40.176,0.00331746,45.176,0.00429624,49.676,0.00214289
27.68,0.00236082,34.18,0.00162351,40.18,0.0033514,45.18,0.00433572,49.68,0.00215878
27.684,0.0023804,34.184,0.00163533,40.184,0.00338585,45.184,0.00437574,49.684,0.00217486
27.688,0.00240021,34.188,0.00164728,40.188,0.00342084,45.188,0.00441631,49.688,0.00219111
27.692,0.00242028,34.192,0.00165936,40.192,0.00345638,45.192,0.00445746,49.692,0.00220754
27.696,0.0024406,34.196,0.00167157,40.196,0.00349247,45.196,0.00449918,49.696,0.00222417
27.7,0.00246118,34.2,0.00168392,40.2,0.00352913,45.2,0.00454149,49.7,0.00224097
27.704,0.00248201,34.204,0.00169641,40.204,0.00356637,45.204,0.00458439,49.704,0.00225798
27.708,0.00250311,34.208,0.00170903,40.208,0.0036042,45.208,0.00462791,49.708,0.00227517
27.712,0.00252449,34.212,0.0017218,40.212,0.00364263,45.212,0.00467205,49.712,0.00229256
27.716,0.00254613,34.216,0.00173471,40.216,0.00368169,45.216,0.00471682,49.716,0.00231015
27.72,0.00256806,34.22,0.00174776,40.22,0.00372137,45.22,0.00476223,49.72,0.00232795
27.724,0.00259027,34.224,0.00176097,40.224,0.0037617,45.224,0.00480831,49.724,0.00234595
27.728,0.00261277,34.228,0.00177432,40.228,0.00380268,45.228,0.00485506,49.728,0.00236416
27.732,0.00263556,34.232,0.00178783,40.232,0.00384434,45.232,0.00490249,49.732,0.00238258
27.736,0.00265866,34.236,0.00180149,40.236,0.00388668,45.236,0.00495061,49.736,0.00240122
27.74,0.00268205,34.24,0.00181531,40.24,0.00392973,45.24,0.00499945,49.74,0.00242008
27.744,0.00270576,34.244,0.00182929,40.244,0.0039735,45.244,0.00504901,49.744,0.00243916
27.748,0.00272979,34.248,0.00184343,40.248,0.004018,45.248,0.00509932,49.748,0.00245847
27.752,0.00275413,34.252,0.00185773,40.252,0.00406325,45.252,0.00515037,49.752,0.00247801
27.756,0.0027788,34.256,0.0018722,40.256,0.00410927,45.256,0.0052022,49.756,0.00249778
27.76,0.0028038,34.26,0.00188684,40.26,0.00415607,45.26,0.00525481,49.76,0.00251779
27.764,0.00282915,34.264,0.00190166,40.264,0.00420368,45.264,0.00530822,49.764,0.00253804
27.768,0.00285483,34.268,0.00191664,40.268,0.00425211,45.268,0.00536245,49.768,0.00255853
27.772,0.00288087,34.272,0.00193181,40.272,0.00430138,45.272,0.00541751,49.772,0.00257927
27.776,0.00290727,34.276,0.00194716,40.276,0.00435151,45.276,0.00547342,49.776,0.00260027
27.78,0.00293403,34.28,0.00196269,40.28,0.00440252,45.28,0.00553021,49.78,0.00262153
27.784,0.00296116,34.284,0.0019784,40.284,0.00445443,45.284,0.00558787,49.784,0.00264304
27.788,0.00298867,34.288,0.00199431,40.288,0.00450726,45.288,0.00564645,49.788,0.00266482
27.792,0.00301656,34.292,0.00201041,40.292,0.00456103,45.292,0.00570595,49.792,0.00268688
27.796,0.00304484,34.296,0.0020267,40.296,0.00461578,45.296,0.00576639,49.796,0.0027092
27.8,0.00307353,34.3,0.00204319,40.3,0.00467151,45.3,0.00582779,49.8,0.00273181
27.804,0.00310262,34.304,0.00205989,40.304,0.00472826,45.304,0.00589018,49.804,0.0027547
27.808,0.00313212,34.308,0.00207679,40.308,0.00478604,45.308,0.00595357,49.808,0.00277787
27.812,0.00316205,34.312,0.0020939,40.312,0.00484489,45.312,0.00601799,49.812,0.00280134
27.816,0.00319241,34.316,0.00211122,40.316,0.00490483,45.316,0.00608346,49.816,0.00282511
27.82,0.00322321,34.32,0.00212875,40.32,0.00496589,45.32,0.00615,49.82,0.00284919
27.824,0.00325445,34.324,0.00214651,40.324,0.00502809,45.324,0.00621764,49.824,0.00287357
27.828,0.00328615,34.328,0.00216449,40.328,0.00509147,45.328,0.0062864,49.828,0.00289827
27.832,0.00331832,34.332,0.00218269,40.332,0.00515605,45.332,0.0063563,49.832,0.00292328
27.836,0.00335096,34.336,0.00220113,40.336,0.00522186,45.336,0.00642737,49.836,0.00294862
27.84,0.00338408,34.34,0.0022198,40.34,0.00528894,45.34,0.00649964,49.84,0.00297429
27.844,0.0034177,34.344,0.00223871,40.344,0.00535732,45.344,0.00657313,49.844,0.0030003
27.848,0.00345182,34.348,0.00225786,40.348,0.00542704,45.348,0.00664787,49.848,0.00302665
27.852,0.00348645,34.352,0.00227726,40.352,0.00549811,45.352,0.00672389,49.852,0.00305335
27.856,0.0035216,34.356,0.00229691,40.356,0.0055706,45.356,0.00680121,49.856,0.0030804
27.86,0.00355729,34.36,0.00231681,40.36,0.00564452,45.36,0.00687988,49.86,0.00310781
27.864,0.00359353,34.364,0.00233697,40.364,0.00571992,45.364,0.00695992,49.864,0.00313559
27.868,0.00363032,34.368,0.0023574,40.368,0.00579684,45.368,0.00704136,49.868,0.00316375
27.872,0.00366767,34.372,0.0023781,40.372,0.00587531,45.372,0.00712423,49.872,0.00319228
27.876,0.00370561,34.376,0.00239907,40.376,0.00595539,45.376,0.00720857,49.876,0.0032212
27.88,0.00374413,34.38,0.00242031,40.38,0.00603711,45.38,0.00729441,49.88,0.00325052
27.884,0.00378326,34.384,0.00244185,40.384,0.00612053,45.384,0.00738179,49.884,0.00328024
27.888,0.00382301,34.388,0.00246367,40.388,0.00620568,45.388,0.00747075,49.888,0.00331036
27.892,0.00386338,34.392,0.00248578,40.392,0.00629261,45.392,0.00756132,49.892,0.00334091
27.896,0.0039044,34.396,0.00250819,40.396,0.00638139,45.396,0.00765354,49.896,0.00337188
27.9,0.00394607,34.4,0.00253091,40.4,0.00647205,45.4,0.00774746,49.9,0.00340328
27.904,0.00398841,34.404,0.00255393,40.404,0.00656465,45.404,0.00784311,49.904,0.00343511
27.908,0.00403144,34.408,0.00257728,40.408,0.00665925,45.408,0.00794054,49.908,0.0034674
27.912,0.00407516,34.412,0.00260094,40.412,0.0067559,45.412,0.00803979,49.912,0.00350015
27.916,0.0041196,34.416,0.00262493,40.416,0.00685467,45.416,0.00814091,49.916,0.00353336
27.92,0.00416477,34.42,0.00264925,40.42,0.00695561,45.42,0.00824395,49.92,0.00356704
27.924,0.00421068,34.424,0.00267391,40.424,0.0070588,45.424,0.00834894,49.924,0.00360121
27.928,0.00425736,34.428,0.00269892,40.428,0.00716429,45.428,0.00845595,49.928,0.00363587
27.932,0.00430482,34.432,0.00272428,40.432,0.00727216,45.432,0.00856502,49.932,0.00367104
27.936,0.00435307,34.436,0.00275,40.436,0.00738248,45.436,0.00867621,49.936,0.00370671
27.94,0.00440214,34.44,0.00277609,40.44,0.00749532,45.44,0.00878958,49.94,0.00374291
27.944,0.00445204,34.444,0.00280254,40.444,0.00761076,45.444,0.00890517,49.944,0.00377964
27.948,0.00450279,34.448,0.00282938,40.448,0.00772889,45.448,0.00902305,49.948,0.00381691
27.952,0.00455442,34.452,0.0028566,40.452,0.00784977,45.452,0.00914329,49.952,0.00385473
27.956,0.00460694,34.456,0.00288422,40.456,0.00797351,45.456,0.00926593,49.956,0.00389312
27.96,0.00466036,34.46,0.00291224,40.46,0.00810019,45.46,0.00939105,49.96,0.00393209
27.964,0.00471473,34.464,0.00294067,40.464,0.0082299,45.464,0.00951871,49.964,0.00397164
27.968,0.00477004,34.468,0.00296952,40.468,0.00836275,45.468,0.00964898,49.968,0.00401179
27.972,0.00482634,34.472,0.00299879,40.472,0.00849883,45.472,0.00978194,49.972,0.00405255
27.976,0.00488363,34.476,0.0030285,40.476,0.00863825,45.476,0.00991766,49.976,0.00409394
27.98,0.00494195,34.48,0.00305865,40.48,0.00878111,45.48,0.0100562,49.98,0.00413596
27.984,0.00500132,34.484,0.00308926,40.484,0.00892754,45.484,0.0101977,49.984,0.00417863
27.988,0.00506177,34.488,0.00312032,40.488,0.00907765,45.488,0.0103421,49.988,0.00422197
27.992,0.00512331,34.492,0.00315186,40.492,0.00923157,45.492,0.0104897,49.992,0.00426598
27.996,0.00518598,34.496,0.00318388,40.496,0.00938942,45.496,0.0106404,49.996,0.00431068
28.0,0.00524981,34.5,0.00321638,40.5,0.00955135,45.5,0.0107944,50.0,0.00435609
28.004,0.00531482,34.504,0.00324939,40.504,0.00971748,45.504,0.0109517,50.004,0.00440221
28.008,0.00538104,34.508,0.0032829,40.508,0.00988797,45.508,0.0111125,50.008,0.00444908
28.012,0.00544851,34.512,0.00331694,40.512,0.010063,45.512,0.0112768,50.012,0.00449669
28.016,0.00551725,34.516,0.00335151,40.516,0.0102427,45.516,0.0114448,50.016,0.00454507
28.02,0.0055873,34.52,0.00338662,40.52,0.0104272,45.52,0.0116165,50.02,0.00459424
28.024,0.00565868,34.524,0.00342228,40.524,0.0106167,45.524,0.0117921,50.024,0.0046442
28.028,0.00573145,34.528,0.00345851,40.528,0.0108114,45.528,0.0119718,50.028,0.00469499
28.032,0.00580562,34.532,0.00349532,40.532,0.0110115,45.532,0.0121555,50.032,0.00474661
28.036,0.00588123,34.536,0.00353271,40.536,0.0112172,45.536,0.0123435,50.036,0.00479908
28.04,0.00595834,34.54,0.00357071,40.54,0.0114287,45.54,0.0125359,50.04,0.00485243
28.044,0.00603696,34.544,0.00360933,40.544,0.0116462,45.544,0.0127328,50.044,0.00490667
28.048,0.00611715,34.548,0.00364858,40.548,0.01187,45.548,0.0129343,50.048,0.00496183
28.052,0.00619894,34.552,0.00368846,40.552,0.0121002,45.552,0.0131406,50.052,0.00501792
28.056,0.00628238,34.556,0.00372901,40.556,0.0123371,45.556,0.0133519,50.056,0.00507496
28.06,0.00636752,34.56,0.00377022,40.56,0.0125811,45.56,0.0135683,50.06,0.00513298
28.064,0.00645439,34.564,0.00381213,40.564,0.0128324,45.564,0.01379,50.064,0.005192
28.068,0.00654305,34.568,0.00385473,40.568,0.0130912,45.568,0.0140172,50.068,0.00525204
28.072,0.00663354,34.572,0.00389805,40.572,0.0133578,45.572,0.0142499,50.072,0.00531312
28.076,0.00672592,34.576,0.0039421,40.576,0.0136327,45.576,0.0144885,50.076,0.00537528
28.08,0.00682024,34.58,0.00398691,40.58,0.0139161,45.58,0.0147331,50.08,0.00543853
28.084,0.00691655,34.584,0.00403248,40.584,0.0142084,45.584,0.0149839,50.084,0.0055029
28.088,0.00701491,34.588,0.00407884,40.588,0.01451,45.588,0.0152412,50.088,0.00556842
28.092,0.00711538,34.592,0.004126,40.592,0.0148212,45.592,0.015505,50.092,0.00563512
28.096,0.00721802,34.596,0.00417398,40.596,0.0151425,45.596,0.0157758,50.096,0.00570302
28.1,0.00732289,34.6,0.0042228,40.6,0.0154743,45.6,0.0160537,50.1,0.00577215
28.104,0.00743005,34.604,0.00427248,40.604,0.015817,45.604,0.0163389,50.104,0.00584254
28.108,0.00753958,34.608,0.00432304,40.608,0.0161712,45.608,0.0166318,50.108,0.00591422
28.112,0.00765154,34.612,0.00437451,40.612,0.0165374,45.612,0.0169326,50.112,0.00598723
28.116,0.00776601,34.616,0.00442689,40.616,0.0169161,45.616,0.0172415,50.116,0.0060616
28.12,0.00788306,34.62,0.00448023,40.62,0.0173078,45.62,0.0175589,50.12,0.00613736
28.124,0.00800277,34.624,0.00453453,40.624,0.0177132,45.624,0.0178852,50.124,0.00621455
28.128,0.00812522,34.628,0.00458982,40.628,0.018133,45.628,0.0182205,50.128,0.00629319
28.132,0.0082505,34.632,0.00464613,40.632,0.0185678,45.632,0.0185653,50.132,0.00637334
28.136,0.00837868,34.636,0.00470348,40.636,0.0190182,45.636,0.0189199,50.136,0.00645502
28.14,0.00850987,34.64,0.00476189,40.64,0.0194852,45.64,0.0192848,50.14,0.00653829
28.144,0.00864415,34.644,0.0048214,40.644,0.0199695,45.644,0.0196602,50.144,0.00662316
28.148,0.00878163,34.648,0.00488203,40.648,0.0204719,45.648,0.0200465,50.148,0.0067097
28.152,0.0089224,34.652,0.00494381,40.652,0.0209934,45.652,0.0204444,50.152,0.00679794
28.156,0.00906658,34.656,0.00500677,40.656,0.0215349,45.656,0.020854,50.156,0.00688793
28.16,0.00921427,34.66,0.00507093,40.66,0.0220974,45.66,0.0212761,50.16,0.00697972
28.164,0.00936558,34.664,0.00513633,40.664,0.0226822,45.664,0.021711,50.164,0.00707335
28.168,0.00952064,34.668,0.00520301,40.668,0.0232902,45.668,0.0221592,50.168,0.00716887
28.172,0.00967957,34.672,0.00527099,40.672,0.0239229,45.672,0.0226214,50.172,0.00726633
28.176,0.0098425,34.676,0.00534031,40.676,0.0245814,45.676,0.023098,50.176,0.00736579
28.18,0.0100096,34.68,0.005411,40.68,0.0252673,45.68,0.0235898,50.18,0.0074673
28.184,0.0101809,34.684,0.0054831,40.684,0.025982,45.684,0.0240973,50.184,0.00757091
28.188,0.0103567,34.688,0.00555666,40.688,0.0267273,45.688,0.0246212,50.188,0.0076767
28.192,0.010537,34.692,0.00563169,40.692,0.0275047,45.692,0.0251623,50.192,0.00778471
28.196,0.0107221,34.696,0.00570826,40.696,0.0283162,45.696,0.0257212,50.196,0.00789501
28.2,0.010912,34.7,0.00578639,40.7,0.0291638,45.7,0.0262988,50.2,0.00800766
28.204,0.0111071,34.704,0.00586614,40.704,0.0300496,45.704,0.0268958,50.204,0.00812273
28.208,0.0113074,34.708,0.00594754,40.708,0.0309759,45.708,0.0275133,50.208,0.0082403
28.212,0.0115131,34.712,0.00603065,40.712,0.0319453,45.712,0.028152,50.212,0.00836043
28.216,0.0117245,34.716,0.00611551,40.716,0.0329604,45.716,0.028813,50.216,0.0084832
28.22,0.0119418,34.72,0.00620216,40.72,0.034024,45.72,0.0294973,50.22,0.00860869
28.224,0.0121651,34.724,0.00629067,40.724,0.0351393,45.724,0.0302061,50.224,0.00873697
28.228,0.0123947,34.728,0.00638108,40.728,0.0363097,45.728,0.0309404,50.228,0.00886813
28.232,0.0126308,34.732,0.00647345,40.732,0.0375388,45.732,0.0317015,50.232,0.00900226
28.236,0.0128738,34.736,0.00656784,40.736,0.0388304,45.736,0.0324908,50.236,0.00913945
28.24,0.0131237,34.74,0.0066643,40.74,0.040189,45.74,0.0333095,50.24,0.00927979
28.244,0.013381,34.744,0.0067629,40.744,0.041619,45.744,0.0341592,50.244,0.00942337
28.248,0.0136459,34.748,0.0068637,40.748,0.0431255,45.748,0.0350415,50.248,0.0095703
28.252,0.0139187,34.752,0.00696676,40.752,0.044714,45.752,0.0359579,50.252,0.00972069
28.256,0.0141998,34.756,0.00707215,40.756,0.0463905,45.756,0.0369103,50.256,0.00987463
28.26,0.0144893,34.76,0.00717995,40.76,0.0481614,45.76,0.0379005,50.26,0.0100322
28.264,0.0147878,34.764,0.00729023,40.764,0.0500339,45.764,0.0389306,50.264,0.0101937
28.268,0.0150956,34.768,0.00740306,40.768,0.0520156,45.768,0.0400026,50.268,0.010359
28.272,0.015413,34.772,0.00751852,40.772,0.0541151,45.772,0.0411189,50.272,0.0105283
28.276,0.0157405,34.776,0.0076367,40.776,0.0563417,45.776,0.0422818,50.276,0.0107019
28.28,0.0160784,34.78,0.00775768,40.78,0.0587057,45.78,0.0434941,50.28,0.0108797
28.284,0.0164273,34.784,0.00788155,40.784,0.0612182,45.784,0.0447584,50.284,0.011062
28.288,0.0167877,34.788,0.0080084,40.788,0.0638918,45.788,0.0460777,50.288,0.0112489
28.292,0.0171599,34.792,0.00813833,40.792,0.0667401,45.792,0.0474552,50.292,0.0114406
28.296,0.0175446,34.796,0.00827144,40.796,0.0697782,45.796,0.0488944,50.296,0.0116372
28.3,0.0179423,34.8,0.00840784,40.8,0.0730229,45.8,0.0503988,50.3,0.0118388
28.304,0.0183536,34.804,0.00854762,40.804,0.0764928,45.804,0.0519724,50.304,0.0120458
28.308,0.018779,34.808,0.00869091,40.808,0.0802086,45.808,0.0536195,50.308,0.0122581
28.312,0.0192194,34.812,0.00883783,40.812,0.0841931,45.812,0.0553446,50.312,0.0124762
28.316,0.0196753,34.816,0.00898848,40.816,0.0884721,45.816,0.0571525,50.316,0.0127
28.32,0.0201476,34.82,0.00914302,40.82,0.0930742,45.82,0.0590486,50.32,0.01293
28.324,0.0206369,34.824,0.00930155,40.824,0.0980313,45.824,0.0610385,50.324,0.0131662
28.328,0.0211441,34.828,0.00946424,40.828,0.103379,45.828,0.0631285,50.328,0.0134089
28.332,0.0216701,34.832,0.00963122,40.832,0.109159,45.832,0.065325,50.332,0.0136583
28.336,0.0222159,34.836,0.00980264,40.836,0.115414,45.836,0.0676354,50.336,0.0139148
28.34,0.0227823,34.84,0.00997866,40.84,0.122197,45.84,0.0700673,50.34,0.0141784
28.344,0.0233706,34.844,0.0101594,40.844,0.129565,45.844,0.0726293,50.344,0.0144497
28.348,0.0239817,34.848,0.0103452,40.848,0.137583,45.848,0.0753304,50.348,0.0147287
28.352,0.0246169,34.852,0.010536,40.852,0.146325,45.852,0.0781807,50.352,0.0150159
28.356,0.0252774,34.856,0.0107322,40.856,0.155873,45.856,0.081191,50.356,0.0153115
28.36,0.0259647,34.86,0.0109339,40.86,0.166322,45.86,0.084373,50.36,0.0156158
28.364,0.0266801,34.864,0.0111413,40.864,0.177779,45.864,0.0877396,50.364,0.0159293
28.368,0.0274252,34.868,0.0113546,40.868,0.190364,45.868,0.0913048,50.368,0.0162523
28.372,0.0282016,34.872,0.0115741,40.872,0.204215,45.872,0.095084,50.372,0.0165851
28.376,0.0290112,34.876,0.0117999,40.876,0.219487,45.876,0.0990938,50.376,0.0169282
28.38,0.0298557,34.88,0.0120325,40.88,0.236353,45.88,0.103353,50.38,0.017282
28.384,0.0307373,34.884,0.0122719,40.884,0.25501,45.884,0.107881,50.384,0.0176469
28.388,0.0316581,34.888,0.0125186,40.888,0.275675,45.888,0.1127,50.388,0.0180234
28.392,0.0326204,34.892,0.0127727,40.892,0.29859,45.892,0.117834,50.392,0.0184121
28.396,0.0336267,34.896,0.0130346,40.896,0.324014,45.896,0.123311,50.396,0.0188134
28.4,0.0346797,34.9,0.0133046,40.9,0.352228,45.9,0.129158,50.4,0.0192278
28.404,0.0357824,34.904,0.013583,40.904,0.383518,45.904,0.13541,50.404,0.019656
28.408,0.0369378,34.908,0.0138702,40.908,0.418165,45.908,0.1421,50.408,0.0200986
28.412,0.0381493,34.912,0.0141666,40.912,0.456426,45.912,0.149269,50.412,0.0205561
28.416,0.0394206,34.916,0.0144726,40.916,0.49849,45.916,0.156959,50.416,0.0210294
28.42,0.0407555,34.92,0.0147885,40.92,0.544436,45.92,0.165218,50.42,0.0215191
28.424,0.0421585,34.924,0.0151148,40.924,0.594159,45.924,0.1741,50.424,0.0220259
28.428,0.0436339,34.928,0.015452,40.928,0.647282,45.928,0.183661,50.428,0.0225508
28.432,0.045187,34.932,0.0158005,40.932,0.703049,45.932,0.193967,50.432,0.0230944
28.436,0.0468231,34.936,0.0161609,40.936,0.760217,45.936,0.205089,50.436,0.0236578
28.44,0.0485481,34.94,0.0165337,40.94,0.81697,45.94,0.217103,50.44,0.0242419
28.444,0.0503685,34.944,0.0169194,40.944,0.870899,45.944,0.230096,50.444,0.0248477
28.448,0.0522912,34.948,0.0173188,40.948,0.919096,45.948,0.244162,50.448,0.0254763
28.452,0.0543241,34.952,0.0177324,40.952,0.958408,45.952,0.259402,50.452,0.0261289
28.456,0.0564753,34.956,0.0181608,40.956,0.985852,45.956,0.275929,50.456,0.0268066
28.46,0.0587542,34.96,0.0186049,40.96,0.999113,45.96,0.293862,50.46,0.0275107
28.464,0.0611707,34.964,0.0190654,40.964,0.997001,45.964,0.31333,50.464,0.0282427
28.468,0.0637359,34.968,0.019543,40.968,0.979709,45.968,0.334467,50.468,0.029004
28.472,0.066462,34.972,0.0200387,40.972,0.948768,45.972,0.357415,50.472,0.0297962
28.476,0.0693622,34.976,0.0205534,40.976,0.906726,45.976,0.382315,50.476,0.030621
28.48,0.0724514,34.98,0.021088,40.98,0.856662,45.98,0.409308,50.48,0.0314801
28.484,0.0757458,34.984,0.0216436,40.984,0.801694,45.984,0.438522,50.484,0.0323754
28.488,0.0792634,34.988,0.0222213,40.988,0.744614,45.988,0.470066,50.488,0.033309
28.492,0.0830242,34.992,0.0228222,40.992,0.687672,45.992,0.504015,50.492,0.0342831
28.496,0.0870502,34.996,0.0234476,40.996,0.632524,45.996,0.540392,50.496,0.0353001
28.5,0.0913661,35.0,0.0240989,41.0,0.580269,46.0,0.579145,50.5,0.0363624
28.504,0.0959992,35.004,0.0247775,41.004,0.53155,46.004,0.62012,50.504,0.0374727
28.508,0.10098,35.008,0.0254848,41.008,0.486659,46.008,0.663028,50.508,0.038634
28.512,0.106343,35.012,0.0262227,41.012,0.445644,46.012,0.70741,50.512,0.0398493
28.516,0.112126,35.016,0.0269927,41.016,0.408389,46.016,0.752606,50.516,0.0411221
28.52,0.118372,35.02,0.0277968,41.02,0.374681,46.02,0.797729,50.52,0.0424559
28.524,0.125128,35.024,0.0286371,41.024,0.344257,46.024,0.841655,50.524,0.0438546
28.528,0.13245,35.028,0.0295156,41.028,0.316831,46.028,0.883045,50.528,0.0453225
28.532,0.140396,35.032,0.0304347,41.032,0.292117,46.032,0.920396,50.532,0.0468641
28.536,0.149036,35.036,0.031397,41.036,0.269839,46.036,0.95214,50.536,0.0484843
28.54,0.158447,35.04,0.0324051,41.04,0.249743,46.04,0.976775,50.54,0.0501885
28.544,0.168714,35.044,0.033462,41.044,0.231594,46.044,0.993027,50.544,0.0519825
28.548,0.179937,35.048,0.0345708,41.048,0.21518,46.048,1.0,50.548,0.0538725
28.552,0.192225,35.052,0.035735,41.052,0.200312,46.052,0.997295,50.552,0.0558654
28.556,0.205703,35.056,0.0369581,41.056,0.18682,46.056,0.985068,50.556,0.0579686
28.56,0.22051,35.06,0.0382444,41.06,0.174554,46.06,0.964006,50.56,0.0601902
28.564,0.236803,35.064,0.039598,41.064,0.163383,46.064,0.935234,50.564,0.0625391
28.568,0.254757,35.068,0.0410237,41.068,0.15319,46.068,0.900173,50.568,0.0650249
28.572,0.274566,35.072,0.0425266,41.072,0.14387,46.072,0.860379,50.572,0.0676582
28.576,0.296443,35.076,0.0441123,41.076,0.135333,46.076,0.817399,50.576,0.0704506
28.58,0.32062,35.08,0.045787,41.08,0.127499,46.08,0.772654,50.58,0.0734147
28.584,0.347342,35.084,0.0475572,41.084,0.120296,46.084,0.727367,50.584,0.0765646
28.588,0.376866,35.088,0.0494302,41.088,0.113662,46.088,0.68253,50.588,0.0799155
28.592,0.409444,35.092,0.0514141,41.092,0.107541,46.092,0.638902,50.592,0.0834844
28.596,0.445311,35.096,0.0535174,41.096,0.101883,46.096,0.597026,50.596,0.0872899
28.6,0.484655,35.1,0.05575,41.1,0.0966451,46.1,0.557263,50.6,0.0913526
28.604,0.527583,35.104,0.0581221,41.104,0.091788,46.104,0.519822,50.604,0.0956952
28.608,0.574065,35.108,0.0606457,41.108,0.0872769,46.108,0.484797,50.608,0.100343
28.612,0.623868,35.112,0.0633333,41.112,0.0830808,46.112,0.452195,50.612,0.105324
28.616,0.676471,35.116,0.0661992,41.116,0.0791718,46.116,0.421961,50.616,0.110669
28.62,0.730979,35.12,0.0692592,41.12,0.0755251,46.12,0.394,50.62,0.116414
28.624,0.786033,35.124,0.0725306,41.124,0.0721184,46.124,0.36819,50.624,0.122595
28.628,0.839766,35.128,0.0760327,41.128,0.0689317,46.128,0.344395,50.628,0.129257
28.632,0.889823,35.132,0.0797871,41.132,0.0659468,46.132,0.322474,50.632,0.136448
28.636,0.933495,35.136,0.0838178,41.136,0.0631475,46.136,0.302284,50.636,0.14422
28.64,0.967978,35.14,0.0881515,41.14,0.0605191,46.14,0.283688,50.64,0.152634
28.644,0.990752,35.144,0.0928182,41.144,0.0580481,46.144,0.266554,50.644,0.161757
28.648,1.0,35.148,0.0978515,41.148,0.0557226,46.148,0.250758,50.648,0.171664
28.652,0.994946,35.152,0.103289,41.152,0.0535316,46.152,0.236185,50.652,0.18244
28.656,0.976016,35.156,0.109174,41.156,0.051465,46.156,0.222729,50.656,0.194178
28.66,0.94475,35.16,0.115553,41.16,0.0495138,46.16,0.210293,50.66,0.206984
28.664,0.903503,35.164,0.122481,41.164,0.0476698,46.164,0.198786,50.664,0.220974
28.668,0.855039,35.168,0.130019,41.168,0.0459252,46.168,0.188128,50.668,0.236281
28.672,0.802126,35.172,0.138235,41.172,0.0442733,46.172,0.178245,50.672,0.253049
28.676,0.747244,35.176,0.147209,41.176,0.0427076,46.176,0.16907,50.676,0.271438
28.68,0.692412,35.18,0.157028,41.18,0.0412225,46.18,0.160542,50.68,0.291623
28.684,0.639134,35.184,0.167795,41.184,0.0398124,46.184,0.152606,50.684,0.313792
28.688,0.588435,35.188,0.179624,41.188,0.0384725,46.188,0.145212,50.688,0.338149
28.692,0.540938,35.192,0.192645,41.192,0.0371983,46.192,0.138315,50.692,0.364903
28.696,0.49695,35.196,0.207006,41.196,0.0359856,46.196,0.131874,50.696,0.394266
28.7,0.456555,35.2,0.222874,41.2,0.0348305,46.2,0.125852,50.7,0.426441
28.704,0.419678,35.204,0.240438,41.204,0.0337296,46.204,0.120215,50.704,0.461608
28.708,0.386152,35.208,0.259911,41.208,0.0326795,46.208,0.114932,50.708,0.499896
28.712,0.355753,35.212,0.281527,41.212,0.0316771,46.212,0.109977,50.712,0.541354
28.716,0.32823,35.216,0.305549,41.216,0.0307197,46.216,0.105323,50.716,0.585911
28.72,0.303328,35.22,0.332256,41.22,0.0298046,46.22,0.100947,50.72,0.633314
28.724,0.280797,35.224,0.361949,41.224,0.0289294,46.224,0.0968298,50.724,0.683074
28.728,0.260401,35.228,0.394931,41.228,0.0280919,46.228,0.0929506,50.728,0.734393
28.732,0.241921,35.232,0.431494,41.232,0.0272898,46.232,0.0892927,50.732,0.786107
28.736,0.225156,35.236,0.471888,41.236,0.0265213,46.236,0.0858399,50.736,0.836653
28.74,0.209928,35.24,0.51628,41.24,0.0257846,46.24,0.0825779,50.74,0.884086
28.744,0.196073,35.244,0.564687,41.244,0.0250779,46.244,0.0794931,50.744,0.926177
28.748,0.183447,35.248,0.616894,41.248,0.0243996,46.248,0.0765733,50.748,0.960588
28.752,0.171922,35.252,0.672345,41.252,0.0237482,46.252,0.0738074,50.752,0.98515
28.756,0.161384,35.256,0.730028,41.256,0.0231224,46.256,0.071185,50.756,0.99816
28.76,0.15173,35.26,0.788357,41.26,0.0225208,46.26,0.0686966,50.76,0.998664
28.764,0.142871,35.264,0.845105,41.264,0.0219422,46.264,0.0663334,50.764,0.986625
28.768,0.134727,35.268,0.897438,41.268,0.0213855,46.268,0.0640874,50.768,0.962928
28.772,0.127228,35.272,0.942105,41.272,0.0208495,46.272,0.0619511,50.772,0.929225
28.776,0.120311,35.276,0.975804,41.276,0.0203333,46.276,0.0599177,50.776,0.88766
28.78,0.113919,35.28,0.995707,41.28,0.0198359,46.28,0.0579808,50.78,0.840567
28.784,0.108004,35.284,1.0,41.284,0.0193565,46.284,0.0561345,50.784,0.790193
28.788,0.102522,35.288,0.988278,41.288,0.0188941,46.288,0.0543734,50.788,0.73851
28.792,0.0974317,35.292,0.961635,41.292,0.0184479,46.292,0.0526923,50.792,0.687112
28.796,0.0926992,35.296,0.922422,41.296,0.0180173,46.296,0.0510867,50.796,0.637194
28.8,0.0882926,35.3,0.873757,41.3,0.0176015,46.3,0.0495521,50.8,0.589581
28.804,0.0841837,35.304,0.818977,41.304,0.0171999,46.304,0.0480846,50.804,0.544787
28.808,0.0803471,35.308,0.761173,41.308,0.0168117,46.308,0.0466802,50.808,0.503077
28.812,0.0767599,35.312,0.702908,41.312,0.0164365,46.312,0.0453355,50.812,0.464537
28.816,0.0734016,35.316,0.646107,41.316,0.0160737,46.316,0.0440472,50.816,0.429127
28.82,0.0702536,35.32,0.592075,41.32,0.0157226,46.32,0.0428123,50.82,0.396719
28.824,0.0672992,35.324,0.541596,41.324,0.0153829,46.324,0.0416279,50.824,0.36714
28.828,0.0645232,35.328,0.495053,41.328,0.015054,46.328,0.0404912,50.828,0.340186
28.832,0.0619118,35.332,0.452541,41.332,0.0147355,46.332,0.0393999,50.832,0.315647
28.836,0.0594526,35.336,0.413962,41.336,0.014427,46.336,0.0383515,50.836,0.29331
28.84,0.0571342,35.34,0.379105,41.34,0.014128,46.34,0.0373439,50.84,0.272975
28.844,0.0549463,35.344,0.347696,41.344,0.0138381,46.344,0.036375,50.844,0.25445
28.848,0.0528794,35.348,0.319435,41.348,0.0135571,46.348,0.0354429,50.848,0.237559
28.852,0.050925,35.352,0.294018,41.352,0.0132845,46.352,0.0345457,50.852,0.222142
28.856,0.0490751,35.356,0.271153,41.356,0.01302,46.356,0.0336818,50.856,0.208051
28.86,0.0473227,35.36,0.250568,41.36,0.0127632,46.36,0.0328496,50.86,0.195156
28.864,0.045661,35.364,0.232015,41.364,0.012514,46.364,0.0320474,50.864,0.183337
28.868,0.044084,35.368,0.215267,41.368,0.012272,46.368,0.031274,50.868,0.172488
28.872,0.0425862,35.372,0.200125,41.372,0.0120369,46.372,0.030528,50.872,0.162515
28.876,0.0411623,35.376,0.186409,41.376,0.0118084,46.376,0.0298081,50.876,0.153333
28.88,0.0398078,35.38,0.173962,41.38,0.0115864,46.38,0.0291131,50.88,0.144865
28.884,0.0385181,35.384,0.162644,41.384,0.0113706,46.384,0.0284418,50.884,0.137044
28.888,0.0372893,35.388,0.152333,41.388,0.0111607,46.388,0.0277934,50.888,0.129809
28.892,0.0361177,35.392,0.14292,41.392,0.0109565,46.392,0.0271666,50.892,0.123107
28.896,0.0349999,35.396,0.13431,41.396,0.0107579,46.396,0.0265606,50.896,0.116889
28.9,0.0339325,35.4,0.12642,41.4,0.0105646,46.4,0.0259745,50.9,0.111111
28.904,0.0329127,35.404,0.119175,41.404,0.0103765,46.404,0.0254075,50.904,0.105735
28.908,0.0319377,35.408,0.11251,41.408,0.0101933,46.408,0.0248586,50.908,0.100727
28.912,0.0310049,35.412,0.106368,41.412,0.0100149,46.412,0.0243272,50.912,0.0960534
28.916,0.030112,35.416,0.100698,41.416,0.00984114,46.416,0.0238125,50.916,0.0916874
28.92,0.0292567,35.42,0.0954539,41.42,0.00967184,46.42,0.0233139,50.92,0.0876033
28.924,0.028437,35.424,0.0905961,41.424,0.00950687,46.424,0.0228306,50.924,0.0837781
28.928,0.027651,35.428,0.0860888,41.428,0.00934607,46.428,0.0223621,50.928,0.0801911
28.932,0.0268968,35.432,0.0819001,41.432,0.0091893,46.432,0.0219077,50.932,0.0768235
28.936,0.0261728,35.436,0.0780015,41.436,0.00903643,46.436,0.021467,50.936,0.0736582
28.94,0.0254774,35.44,0.0743677,41.44,0.00888733,46.44,0.0210393,50.94,0.0706798
28.944,0.0248091,35.444,0.0709759,41.444,0.00874189,46.444,0.0206242,50.944,0.0678743
28.948,0.0241666,35.448,0.0678055,41.448,0.00859997,46.448,0.0202212,50.948,0.0652288
28.952,0.0235485,35.452,0.0648382,41.452,0.00846147,46.452,0.0198298,50.952,0.0627316
28.956,0.0229536,35.456,0.0620573,41.456,0.00832628,46.456,0.0194496,50.956,0.0603722
28.96,0.0223809,35.46,0.059448,41.46,0.0081943,46.46,0.0190802,50.96,0.0581408
28.964,0.0218291,35.464,0.0569966,41.464,0.00806542,46.464,0.0187211,50.964,0.0560285
28.968,0.0212974,35.468,0.054691,41.468,0.00793955,46.468,0.018372,50.968,0.0540271
28.972,0.0207847,35.472,0.05252,41.472,0.0078166,46.472,0.0180325,50.972,0.0521292
28.976,0.0202902,35.476,0.0504736,41.476,0.00769647,46.476,0.0177023,50.976,0.0503278
28.98,0.019813,35.48,0.0485425,41.48,0.00757909,46.48,0.017381,50.98,0.0486167
28.984,0.0193523,35.484,0.0467184,41.484,0.00746436,46.484,0.0170683,50.984,0.04699
28.988,0.0189074,35.488,0.0449937,41.488,0.00735221,46.488,0.016764,50.988,0.0454423
28.992,0.0184776,35.492,0.0433613,41.492,0.00724257,46.492,0.0164676,50.992,0.0439688
28.996,0.0180622,35.496,0.041815,41.496,0.00713535,46.496,0.016179,50.996,0.0425647
29.0,0.0176606,35.5,0.0403488,41.5,0.00703049,46.5,0.0158979,51.0,0.0412259
29.004,0.0172721,35.504,0.0389574,41.504,0.00692792,46.504,0.0156241,51.004,0.0399484
29.008,0.0168963,35.508,0.0376358,41.508,0.00682758,46.508,0.0153572,51.008,0.0387286
29.012,0.0165325,35.512,0.0363795,41.512,0.00672939,46.512,0.015097,51.012,0.0375632
29.016,0.0161803,35.516,0.0351844,41.516,0.0066333,46.516,0.0148434,51.016,0.0364489
29.02,0.0158391,35.52,0.0340465,41.52,0.00653925,46.52,0.014596,51.02,0.0353829
29.024,0.0155086,35.524,0.0329623,41.524,0.00644718,46.524,0.0143548,51.024,0.0343624
29.028,0.0151882,35.528,0.0319286,41.528,0.00635704,46.528,0.0141195,51.028,0.033385
29.032,0.0148777,35.532,0.0309422,41.532,0.00626878,46.532,0.0138899,51.032,0.0324482
29.036,0.0145765,35.536,0.0300004,41.536,0.00618233,46.536,0.0136658,51.036,0.0315499
29.04,0.0142843,35.54,0.0291005,41.54,0.00609766,46.54,0.0134471,51.04,0.030688
29.044,0.0140008,35.544,0.0282402,41.544,0.00601471,46.544,0.0132336,51.044,0.0298606
29.048,0.0137256,35.548,0.0274171,41.548,0.00593344,46.548,0.0130251,51.048,0.0290659
29.052,0.0134584,35.552,0.0266291,41.552,0.0058538,46.552,0.0128214,51.052,0.0283022
29.056,0.0131989,35.556,0.0258743,41.556,0.00577575,46.556,0.0126225,51.056,0.0275679
29.06,0.0129468,35.56,0.0251509,41.56,0.00569925,46.56,0.0124281,51.06,0.0268616
29.064,0.0127018,35.564,0.0244572,41.564,0.00562426,46.564,0.0122382,51.064,0.0261818
29.068,0.0124637,35.568,0.0237916,41.568,0.00555073,46.568,0.0120526,51.068,0.0255273
29.072,0.0122322,35.572,0.0231525,41.572,0.00547863,46.572,0.0118712,51.072,0.0248969
29.076,0.012007,35.576,0.0225387,41.576,0.00540793,46.576,0.0116938,51.076,0.0242893
29.08,0.011788,35.58,0.0219488,41.58,0.00533858,46.58,0.0115203,51.08,0.0237035
29.084,0.0115749,35.584,0.0213815,41.584,0.00527056,46.584,0.0113507,51.084,0.0231385
29.088,0.0113675,35.588,0.0208359,41.588,0.00520383,46.588,0.0111848,51.088,0.0225933
29.092,0.0111656,35.592,0.0203107,41.592,0.00513835,46.592,0.0110224,51.092,0.022067
29.096,0.0109691,35.596,0.019805,41.596,0.0050741,46.596,0.0108636,51.096,0.0215587
29.1,0.0107776,35.6,0.0193178,41.6,0.00501105,46.6,0.0107081,51.1,0.0210677
29.104,0.0105911,35.604,0.0188483,41.604,0.00494916,46.604,0.010556,51.104,0.0205932
29.108,0.0104094,35.608,0.0183956,41.608,0.00488841,46.608,0.0104071,51.108,0.0201344
29.112,0.0102323,35.612,0.0179589,41.612,0.00482877,46.612,0.0102613,51.112,0.0196907
29.116,0.0100597,35.616,0.0175375,41.616,0.00477021,46.616,0.0101185,51.116,0.0192613
29.12,0.00989137,35.62,0.0171306,41.62,0.00471271,46.62,0.00997865,51.12,0.0188458
29.124,0.00972723,35.624,0.0167377,41.624,0.00465624,46.624,0.00984169,51.124,0.0184435
29.128,0.00956714,35.628,0.0163581,41.628,0.00460078,46.628,0.00970751,51.128,0.0180539
29.132,0.00941095,35.632,0.0159911,41.632,0.0045463,46.632,0.00957606,51.132,0.0176764
29.136,0.00925854,35.636,0.0156364,41.636,0.00449279,46.636,0.00944725,51.136,0.0173106
29.14,0.0091098,35.64,0.0152932,41.64,0.00444021,46.64,0.00932101,51.14,0.0169559
29.144,0.0089646,35.644,0.0149611,41.644,0.00438855,46.644,0.00919728,51.144,0.016612
29.148,0.00882283,35.648,0.0146397,41.648,0.00433778,46.648,0.00907599,51.148,0.0162784
29.152,0.00868439,35.652,0.0143285,41.652,0.00428789,46.652,0.00895708,51.152,0.0159546
29.156,0.00854917,35.656,0.0140271,41.656,0.00423885,46.656,0.00884048,51.156,0.0156404
29.16,0.00841708,35.66,0.013735,41.66,0.00419064,46.66,0.00872613,51.16,0.0153353
29.164,0.00828802,35.664,0.0134519,41.664,0.00414326,46.664,0.00861399,51.164,0.0150391
29.168,0.0081619,35.668,0.0131775,41.668,0.00409667,46.668,0.00850398,51.168,0.0147512
29.172,0.00803862,35.672,0.0129113,41.672,0.00405086,46.672,0.00839607,51.172,0.0144716
29.176,0.00791811,35.676,0.0126531,41.676,0.00400582,46.676,0.00829019,51.176,0.0141997
29.18,0.00780029,35.68,0.0124025,41.68,0.00396152,46.68,0.00818629,51.18,0.0139355
29.184,0.00768506,35.684,0.0121593,41.684,0.00391795,46.684,0.00808433,51.184,0.0136785
29.188,0.00757237,35.688,0.0119231,41.688,0.00387509,46.688,0.00798426,51.188,0.0134285
29.192,0.00746213,35.692,0.0116937,41.692,0.00383294,46.692,0.00788603,51.192,0.0131852
29.196,0.00735427,35.696,0.0114708,41.696,0.00379146,46.696,0.00778959,51.196,0.0129485
29.2,0.00724873,35.7,0.0112542,41.7,0.00375066,46.7,0.00769491,51.2,0.0127181
29.204,0.00714544,35.704,0.0110437,41.704,0.00371051,46.704,0.00760194,51.204,0.0124938
29.208,0.00704434,35.708,0.010839,41.708,0.003671,46.708,0.00751065,51.208,0.0122753
29.212,0.00694536,35.712,0.0106399,41.712,0.00363211,46.712,0.00742098,51.212,0.0120624
29.216,0.00684845,35.716,0.0104463,41.716,0.00359384,46.716,0.00733291,51.216,0.0118551
29.22,0.00675355,35.72,0.0102578,41.72,0.00355618,46.72,0.00724639,51.22,0.011653
29.224,0.00666061,35.724,0.0100744,41.724,0.0035191,46.724,0.00716138,51.224,0.011456
29.228,0.00656956,35.728,0.0098959,41.728,0.00348259,46.728,0.00707787,51.228,0.011264
29.232,0.00648037,35.732,0.00972205,41.732,0.00344665,46.732,0.0069958,51.232,0.0110767
29.236,0.00639297,35.736,0.00955272,41.736,0.00341127,46.736,0.00691515,51.236,0.010894
29.24,0.00630733,35.74,0.00938777,41.74,0.00337642,46.74,0.00683588,51.24,0.0107159
29.244,0.00622339,35.744,0.00922703,41.744,0.00334211,46.744,0.00675796,51.244,0.010542
29.248,0.00614112,35.748,0.00907038,41.748,0.00330831,46.748,0.00668136,51.248,0.0103723
29.252,0.00606046,35.752,0.00891768,41.752,0.00327503,46.752,0.00660606,51.252,0.0102067
29.256,0.00598138,35.756,0.00876878,41.756,0.00324224,46.756,0.00653202,51.256,0.0100449
29.26,0.00590383,35.76,0.00862358,41.76,0.00320995,46.76,0.00645922,51.26,0.00988703
29.264,0.00582778,35.764,0.00848194,41.764,0.00317813,46.764,0.00638762,51.264,0.0097328
29.268,0.00575319,35.768,0.00834375,41.768,0.00314679,46.768,0.0063172,51.268,0.00958213
29.272,0.00568001,35.772,0.0082089,41.772,0.0031159,46.772,0.00624794,51.272,0.00943493
29.276,0.00560822,35.776,0.00807729,41.776,0.00308547,46.776,0.00617981,51.276,0.00929109
29.28,0.00553779,35.78,0.00794881,41.78,0.00305548,46.78,0.00611279,51.28,0.0091505
29.284,0.00546866,35.784,0.00782336,41.784,0.00302592,46.784,0.00604685,51.284,0.00901306
29.288,0.00540082,35.788,0.00770085,41.788,0.00299679,46.788,0.00598197,51.288,0.00887869
29.292,0.00533424,35.792,0.00758119,41.792,0.00296808,46.792,0.00591812,51.292,0.0087473
29.296,0.00526887,35.796,0.00746429,41.796,0.00293978,46.796,0.00585529,51.296,0.00861879
29.3,0.0052047,35.8,0.00735006,41.8,0.00291188,46.8,0.00579345,51.3,0.00849308
29.304,0.00514169,35.804,0.00723843,41.804,0.00288438,46.804,0.00573259,51.304,0.0083701
29.308,0.00507981,35.808,0.00712932,41.808,0.00285726,46.808,0.00567267,51.308,0.00824976
29.312,0.00501905,35.812,0.00702266,41.812,0.00283053,46.812,0.00561369,51.312,0.00813199
29.316,0.00495936,35.816,0.00691836,41.816,0.00280417,46.816,0.00555563,51.316,0.00801672
29.32,0.00490074,35.82,0.00681636,41.82,0.00277817,46.82,0.00549846,51.32,0.00790388
29.324,0.00484314,35.824,0.0067166,41.824,0.00275253,46.824,0.00544216,51.324,0.00779339
29.328,0.00478655,35.828,0.00661901,41.828,0.00272725,46.828,0.00538672,51.328,0.0076852
29.332,0.00473095,35.832,0.00652352,41.832,0.00270231,46.832,0.00533213,51.332,0.00757925
29.336,0.00467631,35.836,0.00643008,41.836,0.00267771,46.836,0.00527836,51.336,0.00747546
29.34,0.00462261,35.84,0.00633864,41.84,0.00265345,46.84,0.00522539,51.34,0.00737378
29.344,0.00456982,35.844,0.00624912,41.844,0.00262952,46.844,0.00517322,51.344,0.00727416
29.348,0.00451794,35.848,0.00616148,41.848,0.0026059,46.848,0.00512183,51.348,0.00717654
29.352,0.00446693,35.852,0.00607567,41.852,0.00258261,46.852,0.00507119,51.352,0.00708087
29.356,0.00441678,35.856,0.00599164,41.856,0.00255962,46.856,0.0050213,51.356,0.0069871
29.36,0.00436747,35.86,0.00590933,41.86,0.00253694,46.86,0.00497215,51.36,0.00689517
29.364,0.00431898,35.864,0.00582871,41.864,0.00251456,46.864,0.00492371,51.364,0.00680504
29.368,0.00427129,35.868,0.00574972,41.868,0.00249247,46.868,0.00487597,51.368,0.00671666
29.372,0.00422438,35.872,0.00567232,41.872,0.00247068,46.872,0.00482892,51.372,0.00662999
29.376,0.00417824,35.876,0.00559648,41.876,0.00244916,46.876,0.00478255,51.376,0.00654498
29.38,0.00413286,35.88,0.00552214,41.88,0.00242793,46.88,0.00473684,51.38,0.00646159
29.384,0.0040882,35.884,0.00544927,41.884,0.00240697,46.884,0.00469179,51.384,0.00637978
29.388,0.00404427,35.888,0.00537783,41.888,0.00238629,46.888,0.00464737,51.388,0.00629951
29.392,0.00400104,35.892,0.00530778,41.892,0.00236586,46.892,0.00460358,51.392,0.00622075
29.396,0.0039585,35.896,0.00523909,41.896,0.0023457,46.896,0.00456041,51.396,0.00614345
29.4,0.00391663,35.9,0.00517172,41.9,0.0023258,46.9,0.00451784,51.4,0.00606758
29.404,0.00387542,35.904,0.00510564,41.904,0.00230614,46.904,0.00447586,51.404,0.0059931
29.408,0.00383486,35.908,0.00504082,41.908,0.00228674,46.908,0.00443446,51.408,0.00591998
29.412,0.00379493,35.912,0.00497723,41.912,0.00226758,46.912,0.00439363,51.412,0.00584819
29.416,0.00375562,35.916,0.00491482,41.916,0.00224865,46.916,0.00435337,51.416,0.0057777
29.42,0.00371692,35.92,0.00485358,41.92,0.00222997,46.92,0.00431365,51.42,0.00570847
29.424,0.00367881,35.924,0.00479348,41.924,0.00221151,46.924,0.00427447,51.424,0.00564047
29.428,0.00364128,35.928,0.00473449,41.928,0.00219329,46.928,0.00423583,51.428,0.00557369
29.432,0.00360433,35.932,0.00467657,41.932,0.00217528,46.932,0.00419771,51.432,0.00550807
29.436,0.00356793,35.936,0.00461971,41.936,0.0021575,46.936,0.00416009,51.436,0.00544361
29.44,0.00353208,35.94,0.00456388,41.94,0.00213994,46.94,0.00412298,51.44,0.00538027
29.444,0.00349677,35.944,0.00450905,41.944,0.00212259,46.944,0.00408637,51.444,0.00531803
29.448,0.00346199,35.948,0.00445521,41.948,0.00210544,46.948,0.00405024,51.448,0.00525686
29.452,0.00342772,35.952,0.00440232,41.952,0.00208851,46.952,0.00401458,51.452,0.00519673
29.456,0.00339395,35.956,0.00435037,41.956,0.00207178,46.956,0.00397939,51.456,0.00513764
29.46,0.00336068,35.96,0.00429933,41.96,0.00205525,46.96,0.00394467,51.46,0.00507954
29.464,0.0033279,35.964,0.00424918,41.964,0.00203891,46.964,0.00391039,51.464,0.00502242
29.468,0.0032956,35.968,0.0041999,41.968,0.00202277,46.968,0.00387656,51.468,0.00496625
29.472,0.00326376,35.972,0.00415147,41.972,0.00200682,46.972,0.00384317,51.472,0.00491103
29.476,0.00323238,35.976,0.00410388,41.976,0.00199106,46.976,0.0038102,51.476,0.00485671
29.48,0.00320145,35.98,0.0040571,41.98,0.00197548,46.98,0.00377766,51.48,0.00480329
29.484,0.00317097,35.984,0.00401111,41.984,0.00196009,46.984,0.00374553,51.484,0.00475075
29.488,0.00314091,35.988,0.0039659,41.988,0.00194487,46.988,0.00371381,51.488,0.00469906
29.492,0.00311128,35.992,0.00392145,41.992,0.00192983,46.992,0.00368249,51.492,0.00464821
29.496,0.00308207,35.996,0.00387774,41.996,0.00191497,46.996,0.00365157,51.496,0.00459818
29.5,0.00305327,36.0,0.00383475,42.0,0.00190027,47.0,0.00362103,51.5,0.00454895