File: data/20%.csv
111theta,111intensity,200theta,200intensity,220theta,220intensity,311theta,311intensity,222theta,222intensity,400theta,400intensity
18.5,20.8,21.5,54.2,31,95.8,37,112.5,49.5,79.2,51.89,112.5
18.504,58.3,21.504,25,31.004,129.2,37.004,91.7,49.504,70.8,51.894,100
18.508,37.5,21.508,41.7,31.008,108.3,37.008,133.3,49.508,95.8,51.898,95.8
18.512,33.3,21.512,58.3,31.012,87.5,37.012,104.2,49.512,91.7,51.902,133.3
18.516,45.8,21.516,58.3,31.016,108.3,37.016,79.2,49.516,91.7,51.906,116.7
18.52,37.5,21.52,50,31.02,133.3,37.02,104.2,49.52,70.8,51.91,133.3
18.524,50,21.524,41.7,31.024,108.3,37.024,125,49.524,120.8,51.914,104.2
18.528,58.3,21.528,58.3,31.028,133.3,37.028,120.8,49.528,95.8,51.918,112.5
18.532,37.5,21.532,54.2,31.032,112.5,37.032,108.3,49.532,91.7,51.922,83.3
18.536,25,21.536,29.2,31.036,116.7,37.036,141.7,49.536,75,51.926,116.7
18.54,8.3,21.54,66.7,31.04,112.5,37.04,104.2,49.54,87.5,51.93,112.5
18.544,29.2,21.544,50,31.044,100,37.044,87.5,49.544,70.8,51.934,154.2
18.548,58.3,21.548,50,31.048,75,37.048,150,49.548,83.3,51.938,120.8
18.552,33.3,21.552,45.8,31.052,62.5,37.052,116.7,49.552,41.7,51.942,125
18.556,54.2,21.556,54.2,31.056,112.5,37.056,95.8,49.556,112.5,51.946,129.2
18.56,41.7,21.56,50,31.06,95.8,37.06,116.7,49.56,79.2,51.95,112.5
18.564,45.8,21.564,29.2,31.064,91.7,37.064,137.5,49.564,83.3,51.954,133.3
18.568,45.8,21.568,50,31.068,154.2,37.068,100,49.568,87.5,51.958,133.3
18.572,45.8,21.572,45.8,31.072,125,37.072,104.2,49.572,125,51.962,125
18.576,62.5,21.576,54.2,31.076,108.3,37.076,100,49.576,50,51.966,154.2
18.58,37.5,21.58,58.3,31.08,116.7,37.08,104.2,49.58,54.2,51.97,104.2
18.584,41.7,21.584,58.3,31.084,58.3,37.084,104.2,49.584,70.8,51.974,129.2
18.588,50,21.588,37.5,31.088,137.5,37.088,137.5,49.588,75,51.978,116.7
18.592,20.8,21.592,45.8,31.092,112.5,37.092,100,49.592,87.5,51.982,141.7
18.596,16.7,21.596,54.2,31.096,100,37.096,108.3,49.596,87.5,51.986,112.5
18.6,66.7,21.6,37.5,31.1,104.2,37.1,79.2,49.6,70.8,51.99,112.5
18.604,54.2,21.604,37.5,31.104,137.5,37.104,150,49.604,45.8,51.994,104.2
18.608,33.3,21.608,75,31.108,108.3,37.108,137.5,49.608,91.7,51.998,120.8
18.612,33.3,21.612,45.8,31.112,158.3,37.112,125,49.612,75,52.002,104.2
18.616,54.2,21.616,66.7,31.116,137.5,37.116,100,49.616,70.8,52.006,125
18.62,70.8,21.62,66.7,31.12,87.5,37.12,129.2,49.62,125,52.01,137.5
18.624,41.7,21.624,62.5,31.124,91.7,37.124,120.8,49.624,66.7,52.014,120.8
18.628,45.8,21.628,54.2,31.128,133.3,37.128,137.5,49.628,70.8,52.018,120.8
18.632,33.3,21.632,66.7,31.132,116.7,37.132,129.2,49.632,100,52.022,129.2
18.636,37.5,21.636,50,31.136,145.8,37.136,104.2,49.636,112.5,52.026,125
18.64,41.7,21.64,45.8,31.14,100,37.14,125,49.64,100,52.03,125
18.644,37.5,21.644,58.3,31.144,108.3,37.144,87.5,49.644,91.7,52.034,154.2
18.648,37.5,21.648,41.7,31.148,141.7,37.148,125,49.648,70.8,52.038,129.2
18.652,33.3,21.652,50,31.152,116.7,37.152,91.7,49.652,54.2,52.042,170.8
18.656,37.5,21.656,83.3,31.156,133.3,37.156,87.5,49.656,83.3,52.046,120.8
18.66,62.5,21.66,37.5,31.16,150,37.16,95.8,49.66,95.8,52.05,137.5
18.664,54.2,21.664,58.3,31.164,141.7,37.164,91.7,49.664,104.2,52.054,133.3
18.668,41.7,21.668,41.7,31.168,100,37.168,100,49.668,66.7,52.058,162.5
18.672,87.5,21.672,70.8,31.172,116.7,37.172,112.5,49.672,120.8,52.062,116.7
18.676,54.2,21.676,41.7,31.176,125,37.176,112.5,49.676,91.7,52.066,154.2
18.68,37.5,21.68,37.5,31.18,145.8,37.18,112.5,49.68,108.3,52.07,133.3
18.684,45.8,21.684,50,31.184,108.3,37.184,100,49.684,79.2,52.074,145.8
18.688,37.5,21.688,87.5,31.188,125,37.188,87.5,49.688,70.8,52.078,204.2
18.692,45.8,21.692,45.8,31.192,116.7,37.192,133.3,49.692,62.5,52.082,145.8
18.696,58.3,21.696,41.7,31.196,141.7,37.196,108.3,49.696,50,52.086,170.8
18.7,54.2,21.7,66.7,31.2,100,37.2,108.3,49.7,54.2,52.09,208.3
18.704,45.8,21.704,70.8,31.204,145.8,37.204,83.3,49.704,91.7,52.094,116.7
18.708,33.3,21.708,54.2,31.208,145.8,37.208,129.2,49.708,100,52.098,129.2
18.712,25,21.712,37.5,31.212,91.7,37.212,79.2,49.712,87.5,52.102,120.8
18.716,62.5,21.716,50,31.216,141.7,37.216,120.8,49.716,62.5,52.106,175
18.72,25,21.72,104.2,31.22,141.7,37.22,129.2,49.72,66.7,52.11,191.7
18.724,20.8,21.724,41.7,31.224,116.7,37.224,108.3,49.724,58.3,52.114,154.2
18.728,29.2,21.728,58.3,31.228,87.5,37.228,91.7,49.728,70.8,52.118,162.5
18.732,58.3,21.732,54.2,31.232,104.2,37.232,100,49.732,87.5,52.122,154.2
18.736,29.2,21.736,33.3,31.236,104.2,37.236,87.5,49.736,54.2,52.126,170.8
18.74,50,21.74,70.8,31.24,100,37.24,137.5,49.74,54.2,52.13,183.3
18.744,29.2,21.744,29.2,31.244,83.3,37.244,108.3,49.744,79.2,52.134,162.5
18.748,29.2,21.748,50,31.248,108.3,37.248,137.5,49.748,137.5,52.138,183.3
18.752,29.2,21.752,20.8,31.252,108.3,37.252,129.2,49.752,100,52.142,225
18.756,29.2,21.756,54.2,31.256,104.2,37.256,112.5,49.756,95.8,52.146,208.3
18.76,37.5,21.76,54.2,31.26,137.5,37.26,154.2,49.76,79.2,52.15,191.7
18.764,58.3,21.764,33.3,31.264,133.3,37.264,120.8,49.764,66.7,52.154,204.2
18.768,41.7,21.768,37.5,31.268,112.5,37.268,133.3,49.768,70.8,52.158,179.2
18.772,41.7,21.772,50,31.272,75,37.272,104.2,49.772,95.8,52.162,204.2
18.776,33.3,21.776,58.3,31.276,129.2,37.276,145.8,49.776,95.8,52.166,229.2
18.78,33.3,21.78,37.5,31.28,129.2,37.28,79.2,49.78,91.7,52.17,250
18.784,58.3,21.784,87.5,31.284,125,37.284,112.5,49.784,129.2,52.174,200
18.788,54.2,21.788,37.5,31.288,158.3,37.288,70.8,49.788,87.5,52.178,212.5
18.792,29.2,21.792,50,31.292,112.5,37.292,120.8,49.792,79.2,52.182,208.3
18.796,54.2,21.796,62.5,31.296,104.2,37.296,137.5,49.796,87.5,52.186,229.2
18.8,58.3,21.8,58.3,31.3,100,37.3,75,49.8,62.5,52.19,254.2
18.804,41.7,21.804,66.7,31.304,141.7,37.304,112.5,49.804,75,52.194,200
18.808,41.7,21.808,54.2,31.308,120.8,37.308,120.8,49.808,112.5,52.198,266.7
18.812,29.2,21.812,62.5,31.312,150,37.312,120.8,49.812,66.7,52.202,262.5
18.816,50,21.816,75,31.316,120.8,37.316,104.2,49.816,62.5,52.206,266.7
18.82,33.3,21.82,41.7,31.32,112.5,37.32,179.2,49.82,100,52.21,291.7
18.824,41.7,21.824,75,31.324,112.5,37.324,137.5,49.824,87.5,52.214,254.2
18.828,29.2,21.828,50,31.328,129.2,37.328,141.7,49.828,116.7,52.218,287.5
18.832,37.5,21.832,58.3,31.332,133.3,37.332,112.5,49.832,87.5,52.222,279.2
18.836,45.8,21.836,50,31.336,100,37.336,120.8,49.836,83.3,52.226,333.3
18.84,29.2,21.84,41.7,31.34,116.7,37.34,137.5,49.84,95.8,52.23,275
18.844,45.8,21.844,62.5,31.344,145.8,37.344,112.5,49.844,108.3,52.234,295.8
18.848,54.2,21.848,75,31.348,162.5,37.348,137.5,49.848,87.5,52.238,312.5
18.852,50,21.852,58.3,31.352,166.7,37.352,104.2,49.852,70.8,52.242,316.7
18.856,50,21.856,58.3,31.356,70.8,37.356,125,49.856,70.8,52.246,350
18.86,33.3,21.86,66.7,31.36,116.7,37.36,104.2,49.86,100,52.25,400
18.864,50,21.864,25,31.364,125,37.364,108.3,49.864,137.5,52.254,412.5
18.868,50,21.868,66.7,31.368,145.8,37.368,129.2,49.868,125,52.258,404.2
18.872,45.8,21.872,58.3,31.372,100,37.372,129.2,49.872,79.2,52.262,325
18.876,25,21.876,83.3,31.376,100,37.376,108.3,49.876,87.5,52.266,433.3
18.88,37.5,21.88,66.7,31.38,120.8,37.38,150,49.88,75,52.27,433.3
18.884,54.2,21.884,70.8,31.384,100,37.384,141.7,49.884,100,52.274,425
18.888,58.3,21.888,58.3,31.388,137.5,37.388,108.3,49.888,95.8,52.278,412.5
18.892,45.8,21.892,45.8,31.392,158.3,37.392,108.3,49.892,95.8,52.282,395.8
18.896,45.8,21.896,54.2,31.396,129.2,37.396,83.3,49.896,75,52.286,470.8
18.9,33.3,21.9,58.3,31.4,125,37.4,137.5,49.9,104.2,52.29,558.3
18.904,54.2,21.904,58.3,31.404,154.2,37.404,79.2,49.904,108.3,52.294,466.7
18.908,50,21.908,66.7,31.408,141.7,37.408,162.5,49.908,112.5,52.298,504.2
18.912,37.5,21.912,50,31.412,108.3,37.412,137.5,49.912,75,52.302,504.2
18.916,29.2,21.916,91.7,31.416,158.3,37.416,108.3,49.916,91.7,52.306,433.3
18.92,33.3,21.92,58.3,31.42,104.2,37.42,129.2,49.92,91.7,52.31,458.3
18.924,45.8,21.924,54.2,31.424,116.7,37.424,141.7,49.924,70.8,52.314,516.7
18.928,66.7,21.928,41.7,31.428,125,37.428,104.2,49.928,95.8,52.318,479.2
18.932,45.8,21.932,50,31.432,129.2,37.432,108.3,49.932,120.8,52.322,600
18.936,33.3,21.936,58.3,31.436,133.3,37.436,58.3,49.936,112.5,52.326,616.7
18.94,37.5,21.94,54.2,31.44,125,37.44,129.2,49.94,83.3,52.33,641.7
18.944,41.7,21.944,66.7,31.444,179.2,37.444,104.2,49.944,75,52.334,487.5
18.948,62.5,21.948,41.7,31.448,150,37.448,108.3,49.948,100,52.338,645.8
18.952,54.2,21.952,29.2,31.452,125,37.452,141.7,49.952,112.5,52.342,650
18.956,66.7,21.956,58.3,31.456,87.5,37.456,91.7,49.956,79.2,52.346,675
18.96,37.5,21.96,75,31.46,125,37.46,95.8,49.96,104.2,52.35,479.2
18.964,45.8,21.964,62.5,31.464,75,37.464,116.7,49.964,120.8,52.354,641.7
18.968,62.5,21.968,62.5,31.468,166.7,37.468,141.7,49.968,62.5,52.358,566.7
18.972,37.5,21.972,66.7,31.472,112.5,37.472,70.8,49.972,120.8,52.362,595.8
18.976,45.8,21.976,54.2,31.476,108.3,37.476,125,49.976,120.8,52.366,637.5
18.98,54.2,21.98,66.7,31.48,154.2,37.48,104.2,49.98,87.5,52.37,625
18.984,41.7,21.984,45.8,31.484,120.8,37.484,125,49.984,104.2,52.374,608.3
18.988,50,21.988,66.7,31.488,145.8,37.488,120.8,49.988,116.7,52.378,537.5
18.992,45.8,21.992,79.2,31.492,116.7,37.492,108.3,49.992,70.8,52.382,583.3
18.996,29.2,21.996,50,31.496,170.8,37.496,129.2,49.996,75,52.386,558.3
19,29.2,22,54.2,31.5,116.7,37.5,129.2,50,70.8,52.39,575
19.004,50,22.004,91.7,31.504,133.3,37.504,95.8,50.004,95.8,52.394,587.5
19.008,62.5,22.008,37.5,31.508,183.3,37.508,75,50.008,129.2,52.398,554.2
19.012,58.3,22.012,66.7,31.512,145.8,37.512,133.3,50.012,104.2,52.402,529.2
19.016,29.2,22.016,58.3,31.516,175,37.516,179.2,50.016,129.2,52.406,466.7
19.02,45.8,22.02,33.3,31.52,175,37.52,162.5,50.02,116.7,52.41,516.7
19.024,75,22.024,62.5,31.524,116.7,37.524,108.3,50.024,79.2,52.414,466.7
19.028,33.3,22.028,70.8,31.528,137.5,37.528,104.2,50.028,129.2,52.418,445.8
19.032,58.3,22.032,87.5,31.532,183.3,37.532,112.5,50.032,91.7,52.422,508.3
19.036,20.8,22.036,62.5,31.536,175,37.536,141.7,50.036,125,52.426,425
19.04,70.8,22.04,29.2,31.54,133.3,37.54,145.8,50.04,120.8,52.43,425
19.044,33.3,22.044,79.2,31.544,162.5,37.544,83.3,50.044,112.5,52.434,408.3
19.048,62.5,22.048,66.7,31.548,87.5,37.548,125,50.048,83.3,52.438,387.5
19.052,75,22.052,66.7,31.552,129.2,37.552,100,50.052,91.7,52.442,412.5
19.056,50,22.056,54.2,31.556,154.2,37.556,87.5,50.056,66.7,52.446,370.8
19.06,50,22.06,33.3,31.56,116.7,37.56,87.5,50.06,100,52.45,416.7
19.064,62.5,22.064,58.3,31.564,170.8,37.564,120.8,50.064,112.5,52.454,366.7
19.068,54.2,22.068,54.2,31.568,129.2,37.568,166.7,50.068,87.5,52.458,375
19.072,33.3,22.072,70.8,31.572,133.3,37.572,95.8,50.072,75,52.462,400
19.076,41.7,22.076,50,31.576,145.8,37.576,141.7,50.076,91.7,52.466,337.5
19.08,58.3,22.08,62.5,31.58,141.7,37.58,125,50.08,91.7,52.47,408.3
19.084,70.8,22.084,41.7,31.584,154.2,37.584,120.8,50.084,104.2,52.474,375
19.088,70.8,22.088,50,31.588,129.2,37.588,125,50.088,66.7,52.478,383.3
19.092,50,22.092,79.2,31.592,137.5,37.592,125,50.092,70.8,52.482,329.2
19.096,62.5,22.096,58.3,31.596,145.8,37.596,150,50.096,83.3,52.486,291.7
19.1,37.5,22.1,66.7,31.6,150,37.6,125,50.1,83.3,52.49,291.7
19.104,62.5,22.104,45.8,31.604,162.5,37.604,141.7,50.104,66.7,52.494,254.2
19.108,66.7,22.108,54.2,31.608,162.5,37.608,116.7,50.108,66.7,52.498,325
19.112,62.5,22.112,66.7,31.612,141.7,37.612,166.7,50.112,58.3,52.502,312.5
19.116,45.8,22.116,62.5,31.616,137.5,37.616,108.3,50.116,120.8,52.506,316.7
19.12,75,22.12,58.3,31.62,154.2,37.62,183.3,50.12,87.5,52.51,341.7
19.124,75,22.124,58.3,31.624,158.3,37.624,108.3,50.124,112.5,52.514,237.5
19.128,50,22.128,62.5,31.628,125,37.628,158.3,50.128,95.8,52.518,237.5
19.132,50,22.132,50,31.632,200,37.632,125,50.132,112.5,52.522,237.5
19.136,91.7,22.136,54.2,31.636,141.7,37.636,125,50.136,87.5,52.526,254.2
19.14,54.2,22.14,108.3,31.64,120.8,37.64,154.2,50.14,70.8,52.53,279.2
19.144,37.5,22.144,79.2,31.644,154.2,37.644,120.8,50.144,100,52.534,287.5
19.148,62.5,22.148,75,31.648,145.8,37.648,116.7,50.148,95.8,52.538,245.8
19.152,45.8,22.152,66.7,31.652,162.5,37.652,150,50.152,79.2,52.542,329.2
19.156,83.3,22.156,75,31.656,137.5,37.656,129.2,50.156,104.2,52.546,275
19.16,33.3,22.16,70.8,31.66,145.8,37.66,120.8,50.16,66.7,52.55,350
19.164,66.7,22.164,70.8,31.664,170.8,37.664,158.3,50.164,95.8,52.554,316.7
19.168,75,22.168,45.8,31.668,145.8,37.668,137.5,50.168,104.2,52.558,262.5
19.172,54.2,22.172,45.8,31.672,150,37.672,133.3,50.172,125,52.562,266.7
19.176,50,22.176,54.2,31.676,191.7,37.676,129.2,50.176,87.5,52.566,258.3
19.18,62.5,22.18,54.2,31.68,141.7,37.68,91.7,50.18,91.7,52.57,258.3
19.184,54.2,22.184,62.5,31.684,145.8,37.684,112.5,50.184,70.8,52.574,279.2
19.188,58.3,22.188,54.2,31.688,162.5,37.688,145.8,50.188,79.2,52.578,245.8
19.192,37.5,22.192,66.7,31.692,170.8,37.692,187.5,50.192,100,52.582,329.2
19.196,45.8,22.196,41.7,31.696,158.3,37.696,108.3,50.196,70.8,52.586,300
19.2,41.7,22.2,70.8,31.7,141.7,37.7,145.8,50.2,112.5,52.59,295.8
19.204,45.8,22.204,62.5,31.704,120.8,37.704,125,50.204,95.8,52.594,383.3
19.208,62.5,22.208,41.7,31.708,141.7,37.708,95.8,50.208,79.2,52.598,337.5
19.212,58.3,22.212,45.8,31.712,195.8,37.712,150,50.212,112.5,52.602,287.5
19.216,58.3,22.216,70.8,31.716,112.5,37.716,112.5,50.216,100,52.606,408.3
19.22,37.5,22.22,83.3,31.72,120.8,37.72,141.7,50.22,83.3,52.61,287.5
19.224,83.3,22.224,70.8,31.724,129.2,37.724,116.7,50.224,91.7,52.614,354.2
19.228,62.5,22.228,62.5,31.728,166.7,37.728,150,50.228,120.8,52.618,370.8
19.232,54.2,22.232,58.3,31.732,129.2,37.732,183.3,50.232,54.2,52.622,283.3
19.236,58.3,22.236,83.3,31.736,158.3,37.736,120.8,50.236,91.7,52.626,320.8
19.24,70.8,22.24,100,31.74,137.5,37.74,129.2,50.24,58.3,52.63,395.8
19.244,54.2,22.244,62.5,31.744,179.2,37.744,150,50.244,75,52.634,370.8
19.248,45.8,22.248,91.7,31.748,133.3,37.748,95.8,50.248,95.8,52.638,400
19.252,45.8,22.252,54.2,31.752,141.7,37.752,91.7,50.252,108.3,52.642,275
19.256,54.2,22.256,54.2,31.756,141.7,37.756,154.2,50.256,79.2,52.646,287.5
19.26,70.8,22.26,58.3,31.76,162.5,37.76,141.7,50.26,75,52.65,366.7
19.264,83.3,22.264,50,31.764,175,37.764,108.3,50.264,120.8,52.654,366.7
19.268,62.5,22.268,62.5,31.768,220.8,37.768,162.5,50.268,116.7,52.658,387.5
19.272,25,22.272,41.7,31.772,170.8,37.772,120.8,50.272,83.3,52.662,329.2
19.276,37.5,22.276,70.8,31.776,154.2,37.776,158.3,50.276,100,52.666,358.3
19.28,75,22.28,54.2,31.78,116.7,37.78,145.8,50.28,70.8,52.67,379.2
19.284,58.3,22.284,70.8,31.784,175,37.784,137.5,50.284,108.3,52.674,404.2
19.288,100,22.288,70.8,31.788,179.2,37.788,170.8,50.288,83.3,52.678,362.5
19.292,100,22.292,79.2,31.792,204.2,37.792,216.7,50.292,79.2,52.682,370.8
19.296,79.2,22.296,41.7,31.796,191.7,37.796,154.2,50.296,129.2,52.686,383.3
19.3,70.8,22.3,91.7,31.8,137.5,37.8,191.7,50.3,112.5,52.69,391.7
19.304,58.3,22.304,83.3,31.804,112.5,37.804,204.2,50.304,104.2,52.694,329.2
19.308,91.7,22.308,108.3,31.808,162.5,37.808,237.5,50.308,104.2,52.698,362.5
19.312,83.3,22.312,95.8,31.812,133.3,37.812,204.2,50.312,125,52.702,354.2
19.316,104.2,22.316,108.3,31.816,195.8,37.816,145.8,50.316,87.5,52.706,383.3
19.32,45.8,22.32,87.5,31.82,141.7,37.82,141.7,50.32,112.5,52.71,408.3
19.324,108.3,22.324,70.8,31.824,216.7,37.824,208.3,50.324,112.5,52.714,375
19.328,58.3,22.328,87.5,31.828,208.3,37.828,179.2,50.328,91.7,52.718,316.7
19.332,91.7,22.332,108.3,31.832,108.3,37.832,125,50.332,104.2,52.722,408.3
19.336,62.5,22.336,95.8,31.836,166.7,37.836,191.7,50.336,125,52.726,387.5
19.34,62.5,22.34,129.2,31.84,175,37.84,166.7,50.34,91.7,52.73,341.7
19.344,100,22.344,79.2,31.844,233.3,37.844,154.2,50.344,108.3,52.734,350
19.348,104.2,22.348,100,31.848,183.3,37.848,175,50.348,95.8,52.738,320.8
19.352,70.8,22.352,83.3,31.852,183.3,37.852,133.3,50.352,79.2,52.742,304.2
19.356,62.5,22.356,100,31.856,191.7,37.856,175,50.356,104.2,52.746,275
19.36,58.3,22.36,54.2,31.86,187.5,37.86,183.3,50.36,91.7,52.75,266.7
19.364,54.2,22.364,62.5,31.864,200,37.864,183.3,50.364,91.7,52.754,337.5
19.368,83.3,22.368,58.3,31.868,179.2,37.868,145.8,50.368,95.8,52.758,387.5
19.372,95.8,22.372,66.7,31.872,179.2,37.872,150,50.372,66.7,52.762,325
19.376,79.2,22.376,91.7,31.876,158.3,37.876,220.8,50.376,120.8,52.766,316.7
19.38,58.3,22.38,87.5,31.88,158.3,37.88,191.7,50.38,120.8,52.77,345.8
19.384,79.2,22.384,108.3,31.884,245.8,37.884,208.3,50.384,54.2,52.774,279.2
19.388,112.5,22.388,108.3,31.888,225,37.888,170.8,50.388,100,52.778,320.8
19.392,137.5,22.392,133.3,31.892,212.5,37.892,195.8,50.392,83.3,52.782,212.5
19.396,75,22.396,104.2,31.896,195.8,37.896,229.2,50.396,108.3,52.786,279.2
19.4,79.2,22.4,70.8,31.9,154.2,37.9,179.2,50.4,137.5,52.79,241.7
19.404,120.8,22.404,58.3,31.904,262.5,37.904,250,50.404,79.2,52.794,308.3
19.408,100,22.408,95.8,31.908,187.5,37.908,145.8,50.408,112.5,52.798,204.2
19.412,112.5,22.412,137.5,31.912,216.7,37.912,216.7,50.412,108.3,52.802,287.5
19.416,58.3,22.416,116.7,31.916,187.5,37.916,195.8,50.416,120.8,52.806,225
19.42,145.8,22.42,83.3,31.92,216.7,37.92,191.7,50.42,95.8,52.81,225
19.424,91.7,22.424,95.8,31.924,208.3,37.924,212.5,50.424,75,52.814,245.8
19.428,104.2,22.428,75,31.928,204.2,37.928,195.8,50.428,145.8,52.818,216.7
19.432,116.7,22.432,100,31.932,154.2,37.932,212.5,50.432,112.5,52.822,166.7
19.436,112.5,22.436,116.7,31.936,150,37.936,225,50.436,87.5,52.826,162.5
19.44,120.8,22.44,66.7,31.94,208.3,37.94,254.2,50.44,75,52.83,241.7
19.444,150,22.444,120.8,31.944,179.2,37.944,158.3,50.444,104.2,52.834,229.2
19.448,104.2,22.448,116.7,31.948,204.2,37.948,245.8,50.448,95.8,52.838,187.5
19.452,129.2,22.452,125,31.952,191.7,37.952,262.5,50.452,108.3,52.842,220.8
19.456,129.2,22.456,95.8,31.956,195.8,37.956,225,50.456,70.8,52.846,216.7
19.46,150,22.46,116.7,31.96,204.2,37.96,225,50.46,104.2,52.85,195.8
19.464,129.2,22.464,129.2,31.964,229.2,37.964,220.8,50.464,150,52.854,150
19.468,120.8,22.468,133.3,31.968,237.5,37.968,250,50.468,100,52.858,162.5
19.472,129.2,22.472,133.3,31.972,245.8,37.972,266.7,50.472,87.5,52.862,179.2
19.476,104.2,22.476,129.2,31.976,200,37.976,275,50.476,116.7,52.866,183.3
19.48,116.7,22.48,125,31.98,204.2,37.98,258.3,50.48,154.2,52.87,212.5
19.484,125,22.484,112.5,31.984,204.2,37.984,291.7,50.484,116.7,52.874,141.7
19.488,145.8,22.488,141.7,31.988,212.5,37.988,320.8,50.488,91.7,52.878,116.7
19.492,150,22.492,141.7,31.992,225,37.992,320.8,50.492,75,52.882,154.2
19.496,129.2,22.496,145.8,31.996,212.5,37.996,295.8,50.496,83.3,52.886,183.3
19.5,120.8,22.5,150,32,166.7,38,341.7,50.5,91.7,52.89,137.5
19.504,179.2,22.504,170.8,32.004,233.3,38.004,254.2,50.504,66.7,52.894,166.7
19.508,116.7,22.508,108.3,32.008,250,38.008,333.3,50.508,133.3,52.898,175
19.512,158.3,22.512,158.3,32.012,233.3,38.012,279.2,50.512,120.8,52.902,179.2
19.516,133.3,22.516,187.5,32.016,279.2,38.016,345.8,50.516,104.2,52.906,162.5
19.52,179.2,22.52,154.2,32.02,216.7,38.02,337.5,50.52,108.3,52.91,79.2
19.524,154.2,22.524,158.3,32.024,179.2,38.024,350,50.524,108.3,52.914,162.5
19.528,175,22.528,137.5,32.028,191.7,38.028,475,50.528,150,52.918,150
19.532,158.3,22.532,200,32.032,254.2,38.032,470.8,50.532,100,52.922,120.8
19.536,175,22.536,154.2,32.036,245.8,38.036,416.7,50.536,87.5,52.926,125
19.54,150,22.54,154.2,32.04,295.8,38.04,433.3,50.54,120.8,52.93,166.7
19.544,166.7,22.544,116.7,32.044,225,38.044,466.7,50.544,112.5,52.934,141.7
19.548,150,22.548,141.7,32.048,287.5,38.048,558.3,50.548,120.8,52.938,162.5
19.552,166.7,22.552,125,32.052,237.5,38.052,550,50.552,112.5,52.942,166.7
19.556,266.7,22.556,154.2,32.056,225,38.056,604.2,50.556,116.7,52.946,137.5
19.56,170.8,22.56,229.2,32.06,229.2,38.06,541.7,50.56,100,52.95,125
19.564,212.5,22.564,187.5,32.064,262.5,38.064,579.2,50.564,91.7,52.954,145.8
19.568,279.2,22.568,183.3,32.068,254.2,38.068,666.7,50.568,100,52.958,150
19.572,183.3,22.572,212.5,32.072,316.7,38.072,545.8,50.572,100,52.962,158.3
19.576,241.7,22.576,237.5,32.076,233.3,38.076,704.2,50.576,120.8,52.966,112.5
19.58,245.8,22.58,241.7,32.08,308.3,38.08,770.8,50.58,120.8,52.97,154.2
19.584,225,22.584,245.8,32.084,337.5,38.084,766.7,50.584,91.7,52.974,120.8
19.588,300,22.588,241.7,32.088,304.2,38.088,733.3,50.588,100,52.978,162.5
19.592,258.3,22.592,233.3,32.092,270.8,38.092,787.5,50.592,79.2,52.982,158.3
19.596,279.2,22.596,225,32.096,325,38.096,783.3,50.596,125,52.986,166.7
19.6,275,22.6,225,32.1,341.7,38.1,733.3,50.6,129.2,52.99,104.2
19.604,258.3,22.604,241.7,32.104,341.7,38.104,766.7,50.604,129.2,52.994,112.5
19.608,287.5,22.608,304.2,32.108,300,38.108,983.3,50.608,120.8,52.998,154.2
19.612,291.7,22.612,204.2,32.112,375,38.112,945.8,50.612,116.7,53.002,125
19.616,312.5,22.616,304.2,32.116,337.5,38.116,920.8,50.616,95.8,53.006,120.8
19.62,300,22.62,262.5,32.12,429.2,38.12,1079.2,50.62,129.2,53.01,137.5
19.624,287.5,22.624,266.7,32.124,333.3,38.124,970.8,50.624,125,53.014,125
19.628,354.2,22.628,304.2,32.128,395.8,38.128,1016.7,50.628,116.7,53.018,116.7
19.632,416.7,22.632,341.7,32.132,383.3,38.132,1229.2,50.632,129.2,53.022,158.3
19.636,383.3,22.636,337.5,32.136,383.3,38.136,1120.8,50.636,87.5,53.026,100
19.64,412.5,22.64,333.3,32.14,275,38.14,1262.5,50.64,91.7,53.03,120.8
19.644,416.7,22.644,345.8,32.144,320.8,38.144,1258.3,50.644,175,53.034,108.3
19.648,462.5,22.648,345.8,32.148,370.8,38.148,1433.3,50.648,154.2,53.038,91.7
19.652,387.5,22.652,433.3,32.152,420.8,38.152,1333.3,50.652,154.2,53.042,104.2
19.656,375,22.656,391.7,32.156,429.2,38.156,1454.2,50.656,137.5,53.046,75
19.66,420.8,22.66,454.2,32.16,404.2,38.16,1558.3,50.66,133.3,53.05,129.2
19.664,433.3,22.664,379.2,32.164,395.8,38.164,1487.5,50.664,137.5,53.054,125
19.668,391.7,22.668,404.2,32.168,487.5,38.168,1425,50.668,145.8,53.058,87.5
19.672,345.8,22.672,379.2,32.172,470.8,38.172,1479.2,50.672,145.8,53.062,95.8
19.676,283.3,22.676,454.2,32.176,466.7,38.176,1591.7,50.676,129.2,53.066,87.5
19.68,450,22.68,487.5,32.18,541.7,38.18,1512.5,50.68,179.2,53.07,104.2
19.684,362.5,22.684,441.7,32.184,516.7,38.184,1483.3,50.684,145.8,53.074,100
19.688,383.3,22.688,529.2,32.188,533.3,38.188,1545.8,50.688,141.7,53.078,120.8
19.692,391.7,22.692,529.2,32.192,575,38.192,1512.5,50.692,154.2,53.082,129.2
19.696,333.3,22.696,633.3,32.196,545.8,38.196,1495.8,50.696,170.8,53.086,125
19.7,362.5,22.7,595.8,32.2,616.7,38.2,1470.8,50.7,162.5,53.09,120.8
19.704,345.8,22.704,529.2,32.204,620.8,38.204,1437.5,50.704,191.7,53.094,116.7
19.708,354.2,22.708,587.5,32.208,595.8,38.208,1416.7,50.708,125,53.098,112.5
19.712,312.5,22.712,562.5,32.212,616.7,38.212,1412.5,50.712,183.3,53.102,108.3
19.716,383.3,22.716,620.8,32.216,662.5,38.216,1362.5,50.716,170.8,53.106,108.3
19.72,291.7,22.72,591.7,32.22,700,38.22,1291.7,50.72,141.7,53.11,120.8
19.724,245.8,22.724,679.2,32.224,645.8,38.224,1358.3,50.724,183.3,53.114,79.2
19.728,229.2,22.728,591.7,32.228,770.8,38.228,1320.8,50.728,183.3,53.118,104.2
19.732,275,22.732,716.7,32.232,829.2,38.232,1304.2,50.732,175,53.122,133.3
19.736,270.8,22.736,695.8,32.236,750,38.236,1291.7,50.736,191.7,53.126,79.2
19.74,233.3,22.74,691.7,32.24,875,38.24,1100,50.74,187.5,53.13,145.8
19.744,325,22.744,754.2,32.244,879.2,38.244,1008.3,50.744,208.3,53.134,100
19.748,312.5,22.748,745.8,32.248,995.8,38.248,1095.8,50.748,191.7,53.138,112.5
19.752,291.7,22.752,733.3,32.252,966.7,38.252,1037.5,50.752,183.3,53.142,95.8
19.756,250,22.756,691.7,32.256,1066.7,38.256,1012.5,50.756,187.5,53.146,108.3
19.76,250,22.76,779.2,32.26,1166.7,38.26,841.7,50.76,250,53.15,83.3
19.764,304.2,22.764,704.2,32.264,1145.8,38.264,883.3,50.764,237.5,53.154,120.8
19.768,225,22.768,808.3,32.268,1208.3,38.268,879.2,50.768,220.8,53.158,108.3
19.772,266.7,22.772,675,32.272,1316.7,38.272,900,50.772,212.5,53.162,108.3
19.776,275,22.776,666.7,32.276,1270.8,38.276,895.8,50.776,241.7,53.166,129.2
19.78,262.5,22.78,666.7,32.28,1450,38.28,900,50.78,175,53.17,75
19.784,225,22.784,620.8,32.284,1616.7,38.284,804.2,50.784,291.7,53.174,95.8
19.788,275,22.788,737.5,32.288,1479.2,38.288,750,50.788,216.7,53.178,120.8
19.792,220.8,22.792,625,32.292,1566.7,38.292,795.8,50.792,308.3,53.182,87.5
19.796,275,22.796,583.3,32.296,1737.5,38.296,691.7,50.796,250,53.186,125
19.8,200,22.8,666.7,32.3,1841.7,38.3,741.7,50.8,275,53.19,70.8
19.804,250,22.804,595.8,32.304,2104.2,38.304,720.8,50.804,295.8,53.194,75
19.808,233.3,22.808,625,32.308,2004.2,38.308,637.5,50.808,270.8,53.198,116.7
19.812,187.5,22.812,658.3,32.312,2366.7,38.312,629.2,50.812,362.5,53.202,100
19.816,229.2,22.816,558.3,32.316,2250,38.316,654.2,50.816,241.7,53.206,141.7
19.82,200,22.82,541.7,32.32,2325,38.32,766.7,50.82,325,53.21,112.5
19.824,162.5,22.824,520.8,32.324,2625,38.324,729.2,50.824,266.7,53.214,104.2
19.828,191.7,22.828,454.2,32.328,2637.5,38.328,808.3,50.828,400,53.218,104.2
19.832,179.2,22.832,516.7,32.332,2962.5,38.332,712.5,50.832,320.8,53.222,83.3
19.836,187.5,22.836,500,32.336,2975,38.336,675,50.836,337.5,53.226,108.3
19.84,162.5,22.84,466.7,32.34,3279.2,38.34,737.5,50.84,395.8,53.23,87.5
19.844,108.3,22.844,533.3,32.344,3462.5,38.344,720.8,50.844,437.5,53.234,87.5
19.848,162.5,22.848,495.8,32.348,3737.5,38.348,645.8,50.848,395.8,53.238,108.3
19.852,116.7,22.852,533.3,32.352,3775,38.352,787.5,50.852,391.7,53.242,133.3
19.856,100,22.856,512.5,32.356,4058.3,38.356,808.3,50.856,479.2,53.246,91.7
19.86,137.5,22.86,537.5,32.36,4225,38.36,870.8,50.86,454.2,53.25,150
19.864,83.3,22.864,508.3,32.364,4362.5,38.364,816.7,50.864,491.7,53.254,70.8
19.868,133.3,22.868,358.3,32.368,4483.3,38.368,816.7,50.868,420.8,53.258,95.8
19.872,83.3,22.872,458.3,32.372,4458.3,38.372,812.5,50.872,550,53.262,120.8
19.876,66.7,22.876,458.3,32.376,4979.2,38.376,804.2,50.876,529.2,53.266,83.3
19.88,108.3,22.88,500,32.38,5091.7,38.38,833.3,50.88,541.7,53.27,116.7
19.884,100,22.884,458.3,32.384,5225,38.384,829.2,50.884,533.3,53.274,137.5
19.888,95.8,22.888,429.2,32.388,5558.3,38.388,858.3,50.888,516.7,53.278,104.2
19.892,91.7,22.892,554.2,32.392,5654.2,38.392,870.8,50.892,612.5,53.282,79.2
19.896,108.3,22.896,395.8,32.396,5762.5,38.396,783.3,50.896,654.2,53.286,112.5
19.9,87.5,22.9,429.2,32.4,5666.7,38.4,904.2,50.9,591.7,53.29,95.8
19.904,54.2,22.904,479.2,32.404,5329.2,38.404,791.7,50.904,579.2,53.294,104.2
19.908,112.5,22.908,441.7,32.408,5166.7,38.408,937.5,50.908,625,53.298,100
19.912,104.2,22.912,550,32.412,5504.2,38.412,808.3,50.912,537.5,53.302,91.7
19.916,91.7,22.916,383.3,32.416,5275,38.416,829.2,50.916,695.8,53.306,87.5
19.92,83.3,22.92,445.8,32.42,5083.3,38.42,808.3,50.92,695.8,53.31,70.8
19.924,66.7,22.924,312.5,32.424,5354.2,38.424,908.3,50.924,587.5,53.314,79.2
19.928,95.8,22.928,429.2,32.428,4850,38.428,933.3,50.928,670.8,53.318,141.7
19.932,62.5,22.932,429.2,32.432,4804.2,38.432,1037.5,50.932,533.3,53.322,112.5
19.936,83.3,22.936,295.8,32.436,4558.3,38.436,866.7,50.936,520.8,53.326,91.7
19.94,54.2,22.94,312.5,32.44,4350,38.44,858.3,50.94,612.5,53.33,79.2
19.944,87.5,22.944,275,32.444,4358.3,38.444,866.7,50.944,595.8,53.334,91.7
19.948,58.3,22.948,262.5,32.448,4125,38.448,858.3,50.948,570.8,53.338,95.8
19.952,83.3,22.952,258.3,32.452,3712.5,38.452,837.5,50.952,500,53.342,137.5
19.956,79.2,22.956,258.3,32.456,3845.8,38.456,695.8,50.956,595.8,53.346,108.3
19.96,66.7,22.96,320.8,32.46,3454.2,38.46,737.5,50.96,579.2,53.35,83.3
19.964,75,22.964,266.7,32.464,3175,38.464,720.8,50.964,612.5,53.354,87.5
19.968,58.3,22.968,258.3,32.468,3166.7,38.468,812.5,50.968,558.3,53.358,79.2
19.972,62.5,22.972,187.5,32.472,3187.5,38.472,725,50.972,545.8,53.362,87.5
19.976,45.8,22.976,229.2,32.476,3062.5,38.476,683.3,50.976,466.7,53.366,108.3
19.98,50,22.98,204.2,32.48,2808.3,38.48,637.5,50.98,487.5,53.37,91.7
19.984,95.8,22.984,220.8,32.484,2929.2,38.484,708.3,50.984,466.7,53.374,133.3
19.988,37.5,22.988,175,32.488,2704.2,38.488,566.7,50.988,441.7,53.378,58.3
19.992,75,22.992,191.7,32.492,2695.8,38.492,504.2,50.992,362.5,53.382,108.3
19.996,108.3,22.996,179.2,32.496,2504.2,38.496,562.5,50.996,466.7,53.386,50
20,79.2,23,133.3,32.5,2445.8,38.5,445.8,51,454.2,53.39,125
20.004,62.5,23.004,162.5,32.504,2329.2,38.504,483.3,51.004,375,53.394,120.8
20.008,54.2,23.008,141.7,32.508,2445.8,38.508,462.5,51.008,395.8,53.398,87.5
20.012,66.7,23.012,116.7,32.512,2425,38.512,516.7,51.012,400,53.402,112.5
20.016,83.3,23.016,158.3,32.516,2458.3,38.516,495.8,51.016,345.8,53.406,75
20.02,79.2,23.02,116.7,32.52,2304.2,38.52,425,51.02,395.8,53.41,95.8
20.024,83.3,23.024,116.7,32.524,2370.8,38.524,408.3,51.024,354.2,53.414,112.5
20.028,112.5,23.028,120.8,32.528,2495.8,38.528,420.8,51.028,358.3,53.418,108.3
20.032,62.5,23.032,158.3,32.532,2450,38.532,420.8,51.032,312.5,53.422,83.3
20.036,70.8,23.036,83.3,32.536,2566.7,38.536,366.7,51.036,362.5,53.426,104.2
20.04,83.3,23.04,162.5,32.54,2562.5,38.54,391.7,51.04,333.3,53.43,83.3
20.044,87.5,23.044,116.7,32.544,2662.5,38.544,366.7,51.044,270.8,53.434,112.5
20.048,70.8,23.048,158.3,32.548,2783.3,38.548,316.7,51.048,287.5,53.438,83.3
20.052,79.2,23.052,133.3,32.552,2566.7,38.552,291.7,51.052,270.8,53.442,87.5
20.056,66.7,23.056,104.2,32.556,2837.5,38.556,316.7,51.056,270.8,53.446,137.5
20.06,50,23.06,87.5,32.56,2883.3,38.56,329.2,51.06,270.8,53.45,112.5
20.064,45.8,23.064,108.3,32.564,2929.2,38.564,233.3,51.064,283.3,53.454,87.5
20.068,54.2,23.068,112.5,32.568,2975,38.568,291.7,51.068,262.5,53.458,75
20.072,70.8,23.072,91.7,32.572,2858.3,38.572,270.8,51.072,312.5,53.462,112.5
20.076,66.7,23.076,79.2,32.576,2983.3,38.576,237.5,51.076,262.5,53.466,104.2
20.08,79.2,23.08,100,32.58,3129.2,38.58,233.3,51.08,304.2,53.47,133.3
20.084,50,23.084,70.8,32.584,3387.5,38.584,216.7,51.084,258.3,53.474,75
20.088,70.8,23.088,133.3,32.588,3341.7,38.588,295.8,51.088,295.8,53.478,104.2
20.092,75,23.092,62.5,32.592,3370.8,38.592,262.5,51.092,262.5,53.482,112.5
20.096,75,23.096,100,32.596,3258.3,38.596,225,51.096,204.2,53.486,75
20.1,41.7,23.1,108.3,32.6,3379.2,38.6,241.7,51.1,270.8,53.49,112.5
20.104,95.8,23.104,100,32.604,3291.7,38.604,170.8,51.104,195.8,53.494,145.8
20.108,83.3,23.108,120.8,32.608,3387.5,38.608,200,51.108,245.8,53.498,91.7
20.112,45.8,23.112,104.2,32.612,3241.7,38.612,179.2,51.112,287.5,53.502,95.8
20.116,54.2,23.116,91.7,32.616,3220.8,38.616,229.2,51.116,254.2,53.506,125
20.12,70.8,23.12,95.8,32.62,3095.8,38.62,183.3,51.12,250,53.51,100
20.124,66.7,23.124,91.7,32.624,2987.5,38.624,158.3,51.124,270.8,53.514,75
20.128,83.3,23.128,112.5,32.628,2900,38.628,204.2,51.128,279.2,53.518,100
20.132,58.3,23.132,70.8,32.632,2908.3,38.632,183.3,51.132,191.7,53.522,120.8
20.136,83.3,23.136,83.3,32.636,2529.2,38.636,179.2,51.136,308.3,53.526,100
20.14,45.8,23.14,70.8,32.64,2550,38.64,200,51.14,291.7,53.53,108.3
20.144,66.7,23.144,91.7,32.644,2262.5,38.644,158.3,51.144,283.3,53.534,104.2
20.148,83.3,23.148,66.7,32.648,2216.7,38.648,216.7,51.148,300,53.538,79.2
20.152,70.8,23.152,100,32.652,2345.8,38.652,175,51.152,262.5,53.542,91.7
20.156,62.5,23.156,91.7,32.656,1925,38.656,204.2,51.156,358.3,53.546,75
20.16,62.5,23.16,66.7,32.66,1925,38.66,125,51.16,258.3,53.55,91.7
20.164,50,23.164,91.7,32.664,1837.5,38.664,195.8,51.164,250,53.554,116.7
20.168,66.7,23.168,62.5,32.668,1750,38.668,170.8,51.168,316.7,53.558,91.7
20.172,58.3,23.172,75,32.672,1529.2,38.672,179.2,51.172,295.8,53.562,112.5
20.176,29.2,23.176,104.2,32.676,1604.2,38.676,158.3,51.176,258.3,53.566,100
20.18,83.3,23.18,70.8,32.68,1358.3,38.68,141.7,51.18,312.5,53.57,108.3
20.184,70.8,23.184,66.7,32.684,1529.2,38.684,150,51.184,320.8,53.574,75
20.188,66.7,23.188,33.3,32.688,1212.5,38.688,150,51.188,304.2,53.578,87.5
20.192,79.2,23.192,58.3,32.692,1266.7,38.692,162.5,51.192,291.7,53.582,83.3
20.196,75,23.196,95.8,32.696,1237.5,38.696,83.3,51.196,366.7,53.586,104.2
20.2,87.5,23.2,91.7,32.7,1158.3,38.7,133.3,51.2,358.3,53.59,79.2
20.204,62.5,23.204,70.8,32.704,1100,38.704,137.5,51.204,312.5,53.594,91.7
20.208,41.7,23.208,83.3,32.708,970.8,38.708,145.8,51.208,329.2,53.598,70.8
20.212,33.3,23.212,62.5,32.712,916.7,38.712,145.8,51.212,295.8,53.602,83.3
20.216,79.2,23.216,100,32.716,941.7,38.716,133.3,51.216,308.3,53.606,75
20.22,50,23.22,41.7,32.72,887.5,38.72,158.3,51.22,383.3,53.61,83.3
20.224,62.5,23.224,66.7,32.724,862.5,38.724,129.2,51.224,420.8,53.614,112.5
20.228,66.7,23.228,79.2,32.728,854.2,38.728,137.5,51.228,408.3,53.618,100
20.232,70.8,23.232,58.3,32.732,766.7,38.732,187.5,51.232,408.3,53.622,125
20.236,58.3,23.236,58.3,32.736,741.7,38.736,129.2,51.236,433.3,53.626,83.3
20.24,87.5,23.24,54.2,32.74,679.2,38.74,137.5,51.24,387.5,53.63,83.3
20.244,79.2,23.244,95.8,32.744,670.8,38.744,183.3,51.244,412.5,53.634,112.5
20.248,54.2,23.248,79.2,32.748,750,38.748,120.8,51.248,395.8,53.638,120.8
20.252,91.7,23.252,87.5,32.752,633.3,38.752,129.2,51.252,391.7,53.642,112.5
20.256,79.2,23.256,58.3,32.756,654.2,38.756,125,51.256,495.8,53.646,87.5
20.26,70.8,23.26,66.7,32.76,612.5,38.76,137.5,51.26,412.5,53.65,75
20.264,54.2,23.264,87.5,32.764,562.5,38.764,162.5,51.264,429.2,53.654,91.7
20.268,45.8,23.268,70.8,32.768,575,38.768,137.5,51.268,383.3,53.658,95.8
20.272,58.3,23.272,41.7,32.772,537.5,38.772,125,51.272,437.5,53.662,95.8
20.276,45.8,23.276,79.2,32.776,450,38.776,145.8,51.276,350,53.666,95.8
20.28,79.2,23.28,70.8,32.78,458.3,38.78,125,51.28,454.2,53.67,91.7
20.284,75,23.284,45.8,32.784,466.7,38.784,108.3,51.284,341.7,53.674,108.3
20.288,58.3,23.288,87.5,32.788,570.8,38.788,112.5,51.288,375,53.678,100
20.292,58.3,23.292,41.7,32.792,508.3,38.792,187.5,51.292,400,53.682,108.3
20.296,54.2,23.296,70.8,32.796,504.2,38.796,145.8,51.296,362.5,53.686,95.8
20.3,54.2,23.3,66.7,32.8,420.8,38.8,154.2,51.3,383.3,53.69,79.2
20.304,58.3,23.304,33.3,32.804,429.2,38.804,137.5,51.304,354.2,53.694,50
20.308,45.8,23.308,75,32.808,404.2,38.808,137.5,51.308,300,53.698,100
20.312,41.7,23.312,79.2,32.812,429.2,38.812,166.7,51.312,295.8,53.702,108.3
20.316,58.3,23.316,62.5,32.816,333.3,38.816,104.2,51.316,329.2,53.706,112.5
20.32,70.8,23.32,58.3,32.82,375,38.82,137.5,51.32,191.7,53.71,129.2
20.324,41.7,23.324,54.2,32.824,375,38.824,91.7,51.324,304.2,53.714,104.2
20.328,45.8,23.328,75,32.828,395.8,38.828,83.3,51.328,295.8,53.718,75
20.332,75,23.332,91.7,32.832,358.3,38.832,150,51.332,266.7,53.722,58.3
20.336,25,23.336,58.3,32.836,358.3,38.836,133.3,51.336,241.7,53.726,133.3
20.34,25,23.34,66.7,32.84,337.5,38.84,112.5,51.34,208.3,53.73,87.5
20.344,37.5,23.344,87.5,32.844,354.2,38.844,91.7,51.344,254.2,53.734,62.5
20.348,70.8,23.348,66.7,32.848,316.7,38.848,120.8,51.348,287.5,53.738,75
20.352,41.7,23.352,66.7,32.852,304.2,38.852,112.5,51.352,258.3,53.742,91.7
20.356,41.7,23.356,91.7,32.856,379.2,38.856,125,51.356,229.2,53.746,100
20.36,54.2,23.36,75,32.86,333.3,38.86,116.7,51.36,266.7,53.75,83.3
20.364,54.2,23.364,95.8,32.864,375,38.864,91.7,51.364,254.2,53.754,104.2
20.368,62.5,23.368,62.5,32.868,300,38.868,100,51.368,270.8,53.758,70.8
20.372,33.3,23.372,66.7,32.872,329.2,38.872,129.2,51.372,191.7,53.762,75
20.376,70.8,23.376,66.7,32.876,341.7,38.876,129.2,51.376,195.8,53.766,91.7
20.38,50,23.38,45.8,32.88,275,38.88,108.3,51.38,208.3,53.77,108.3
20.384,37.5,23.384,104.2,32.884,283.3,38.884,125,51.384,170.8,53.774,87.5
20.388,54.2,23.388,54.2,32.888,325,38.888,154.2,51.388,162.5,53.778,79.2
20.392,66.7,23.392,58.3,32.892,341.7,38.892,100,51.392,133.3,53.782,137.5
20.396,41.7,23.396,33.3,32.896,287.5,38.896,137.5,51.396,170.8,53.786,116.7
20.4,75,23.4,62.5,32.9,320.8,38.9,133.3,51.4,225,53.79,120.8
20.404,50,23.404,58.3,32.904,333.3,38.904,137.5,51.404,179.2,53.794,104.2
20.408,58.3,23.408,62.5,32.908,283.3,38.908,141.7,51.408,120.8,53.798,100
20.412,75,23.412,83.3,32.912,308.3,38.912,100,51.412,183.3,53.802,104.2
20.416,50,23.416,62.5,32.916,291.7,38.916,112.5,51.416,162.5,53.806,108.3
20.42,54.2,23.42,50,32.92,229.2,38.92,120.8,51.42,175,53.81,95.8
20.424,41.7,23.424,75,32.924,304.2,38.924,108.3,51.424,175,53.814,62.5
20.428,58.3,23.428,62.5,32.928,300,38.928,112.5,51.428,208.3,53.818,95.8
20.432,58.3,23.432,54.2,32.932,283.3,38.932,100,51.432,133.3,53.822,83.3
20.436,45.8,23.436,75,32.936,291.7,38.936,104.2,51.436,154.2,53.826,116.7
20.44,70.8,23.44,45.8,32.94,254.2,38.94,112.5,51.44,145.8,53.83,91.7
20.444,29.2,23.444,75,32.944,300,38.944,129.2,51.444,162.5,53.834,91.7
20.448,58.3,23.448,70.8,32.948,262.5,38.948,129.2,51.448,145.8,53.838,108.3
20.452,41.7,23.452,54.2,32.952,237.5,38.952,108.3,51.452,137.5,53.842,87.5
20.456,45.8,23.456,66.7,32.956,220.8,38.956,125,51.456,200,53.846,87.5
20.46,62.5,23.46,79.2,32.96,254.2,38.96,100,51.46,158.3,53.85,75
20.464,45.8,23.464,37.5,32.964,208.3,38.964,145.8,51.464,154.2,53.854,66.7
20.468,58.3,23.468,25,32.968,250,38.968,95.8,51.468,154.2,53.858,116.7
20.472,45.8,23.472,58.3,32.972,287.5,38.972,141.7,51.472,175,53.862,95.8
20.476,54.2,23.476,45.8,32.976,250,38.976,145.8,51.476,120.8,53.866,125
20.48,45.8,23.48,66.7,32.98,187.5,38.98,100,51.48,166.7,53.87,120.8
20.484,58.3,23.484,79.2,32.984,237.5,38.984,133.3,51.484,150,53.874,129.2
20.488,91.7,23.488,58.3,32.988,270.8,38.988,104.2,51.488,141.7,53.878,112.5
20.492,45.8,23.492,37.5,32.992,254.2,38.992,83.3,51.492,100,53.882,112.5
20.496,41.7,23.496,41.7,32.996,233.3,38.996,112.5,51.496,183.3,53.886,100
20.5,54.2,23.5,50,33,295.8,39,108.3,51.5,154.2,53.89,95.8
20.504,75,23.504,83.3,33.004,187.5,39.004,129.2,51.504,91.7,53.894,83.3
20.508,58.3,23.508,95.8,33.008,170.8,39.008,112.5,51.508,166.7,53.898,116.7
20.512,50,23.512,50,33.012,250,39.012,95.8,51.512,125,53.902,58.3
20.516,62.5,23.516,70.8,33.016,212.5,39.016,120.8,51.516,150,53.906,125
20.52,58.3,23.52,79.2,33.02,204.2,39.02,104.2,51.52,112.5,53.91,66.7
20.524,58.3,23.524,54.2,33.024,250,39.024,112.5,51.524,116.7,53.914,100
20.528,70.8,23.528,41.7,33.028,250,39.028,112.5,51.528,129.2,53.918,133.3
20.532,70.8,23.532,83.3,33.032,225,39.032,125,51.532,100,53.922,70.8
20.536,45.8,23.536,70.8,33.036,245.8,39.036,95.8,51.536,129.2,53.926,62.5
20.54,45.8,23.54,54.2,33.04,191.7,39.04,150,51.54,112.5,53.93,75
20.544,50,23.544,91.7,33.044,241.7,39.044,100,51.544,112.5,53.934,83.3
20.548,29.2,23.548,45.8,33.048,195.8,39.048,104.2,51.548,95.8,53.938,79.2
20.552,37.5,23.552,75,33.052,212.5,39.052,116.7,51.552,145.8,53.942,133.3
20.556,54.2,23.556,70.8,33.056,229.2,39.056,137.5,51.556,70.8,53.946,83.3
20.56,50,23.56,62.5,33.06,225,39.06,129.2,51.56,120.8,53.95,75
20.564,50,23.564,41.7,33.064,195.8,39.064,95.8,51.564,91.7,53.954,133.3
20.568,33.3,23.568,50,33.068,200,39.068,137.5,51.568,145.8,53.958,125
20.572,41.7,23.572,58.3,33.072,262.5,39.072,100,51.572,125,53.962,120.8
20.576,37.5,23.576,37.5,33.076,258.3,39.076,87.5,51.576,79.2,53.966,75
20.58,50,23.58,62.5,33.08,141.7,39.08,91.7,51.58,137.5,53.97,70.8
20.584,83.3,23.584,75,33.084,200,39.084,79.2,51.584,104.2,53.974,112.5
20.588,66.7,23.588,70.8,33.088,170.8,39.088,145.8,51.588,141.7,53.978,50
20.592,54.2,23.592,70.8,33.092,229.2,39.092,145.8,51.592,116.7,53.982,95.8
20.596,45.8,23.596,62.5,33.096,270.8,39.096,100,51.596,91.7,53.986,108.3
20.6,66.7,23.6,62.5,33.1,208.3,39.1,116.7,51.6,108.3,53.99,79.2
20.604,41.7,23.604,33.3,33.104,233.3,39.104,79.2,51.604,125,53.994,116.7
20.608,33.3,23.608,75,33.108,166.7,39.108,75,51.608,108.3,53.998,150
20.612,50,23.612,66.7,33.112,233.3,39.112,83.3,51.612,108.3,,
20.616,75,23.616,54.2,33.116,254.2,39.116,108.3,51.616,100,,
20.62,33.3,23.62,54.2,33.12,245.8,39.12,108.3,51.62,129.2,,
20.624,50,23.624,75,33.124,191.7,39.124,133.3,51.624,100,,
20.628,25,23.628,108.3,33.128,166.7,39.128,91.7,51.628,83.3,,
20.632,41.7,23.632,66.7,33.132,200,39.132,104.2,51.632,150,,
20.636,54.2,23.636,75,33.136,216.7,39.136,95.8,51.636,137.5,,
20.64,70.8,23.64,75,33.14,191.7,39.14,83.3,51.64,104.2,,
20.644,50,23.644,50,33.144,162.5,39.144,79.2,51.644,125,,
20.648,50,23.648,50,33.148,154.2,39.148,87.5,51.648,116.7,,
20.652,62.5,23.652,75,33.152,141.7,39.152,120.8,51.652,158.3,,
20.656,45.8,23.656,66.7,33.156,187.5,39.156,129.2,51.656,129.2,,
20.66,37.5,23.66,58.3,33.16,220.8,39.16,100,51.66,145.8,,
20.664,45.8,23.664,54.2,33.164,187.5,39.164,108.3,51.664,112.5,,
20.668,29.2,23.668,50,33.168,262.5,39.168,87.5,51.668,91.7,,
20.672,66.7,23.672,45.8,33.172,245.8,39.172,108.3,51.672,116.7,,
20.676,62.5,23.676,58.3,33.176,158.3,39.176,108.3,51.676,116.7,,
20.68,54.2,23.68,83.3,33.18,170.8,39.18,91.7,51.68,187.5,,
20.684,79.2,23.684,83.3,33.184,166.7,39.184,95.8,51.684,129.2,,
20.688,29.2,23.688,54.2,33.188,179.2,39.188,116.7,51.688,112.5,,
20.692,54.2,23.692,66.7,33.192,204.2,39.192,120.8,51.692,150,,
20.696,58.3,23.696,58.3,33.196,233.3,39.196,129.2,51.696,104.2,,
20.7,58.3,23.7,70.8,33.2,204.2,39.2,116.7,51.7,145.8,,
20.704,37.5,23.704,70.8,33.204,187.5,39.204,100,51.704,100,,
20.708,50,23.708,45.8,33.208,183.3,39.208,141.7,51.708,162.5,,
20.712,62.5,23.712,37.5,33.212,195.8,39.212,112.5,51.712,129.2,,
20.716,29.2,23.716,83.3,33.216,162.5,39.216,95.8,51.716,91.7,,
20.72,58.3,23.72,66.7,33.22,179.2,39.22,116.7,51.72,100,,
20.724,25,23.724,58.3,33.224,216.7,39.224,100,51.724,162.5,,
20.728,62.5,23.728,79.2,33.228,183.3,39.228,125,51.728,83.3,,
20.732,20.8,23.732,41.7,33.232,154.2,39.232,104.2,51.732,100,,
20.736,50,23.736,29.2,33.236,241.7,39.236,70.8,51.736,87.5,,
20.74,70.8,23.74,58.3,33.24,183.3,39.24,116.7,51.74,95.8,,
20.744,37.5,23.744,45.8,33.244,187.5,39.244,66.7,51.744,125,,
20.748,62.5,23.748,45.8,33.248,145.8,39.248,145.8,51.748,116.7,,
20.752,45.8,23.752,45.8,33.252,216.7,39.252,100,51.752,141.7,,
20.756,66.7,23.756,87.5,33.256,183.3,39.256,79.2,51.756,150,,
20.76,75,23.76,58.3,33.26,212.5,39.26,125,51.76,133.3,,
20.764,62.5,23.764,66.7,33.264,195.8,39.264,133.3,51.764,87.5,,
20.768,62.5,23.768,37.5,33.268,175,39.268,104.2,51.768,112.5,,
20.772,45.8,23.772,29.2,33.272,191.7,39.272,91.7,51.772,112.5,,
20.776,45.8,23.776,62.5,33.276,195.8,39.276,91.7,51.776,79.2,,
20.78,54.2,23.78,70.8,33.28,191.7,39.28,87.5,51.78,116.7,,
20.784,41.7,23.784,54.2,33.284,233.3,39.284,120.8,51.784,133.3,,
20.788,45.8,23.788,41.7,33.288,170.8,39.288,137.5,51.788,116.7,,
20.792,25,23.792,62.5,33.292,175,39.292,145.8,51.792,137.5,,
20.796,25,23.796,58.3,33.296,187.5,39.296,95.8,51.796,154.2,,
20.8,41.7,23.8,66.7,33.3,200,39.3,87.5,51.8,100,,
20.804,33.3,23.804,62.5,33.304,208.3,39.304,150,51.804,108.3,,
20.808,58.3,23.808,66.7,33.308,191.7,39.308,120.8,51.808,91.7,,
20.812,41.7,23.812,70.8,33.312,150,39.312,112.5,51.812,100,,
20.816,54.2,23.816,66.7,33.316,150,39.316,108.3,51.816,116.7,,
20.82,41.7,23.82,58.3,33.32,200,39.32,112.5,51.82,133.3,,
20.824,41.7,23.824,45.8,33.324,191.7,39.324,145.8,51.824,108.3,,
20.828,45.8,23.828,91.7,33.328,212.5,39.328,83.3,51.828,129.2,,
20.832,29.2,23.832,37.5,33.332,216.7,39.332,120.8,51.832,95.8,,
20.836,79.2,23.836,41.7,33.336,150,39.336,70.8,51.836,108.3,,
20.84,29.2,23.84,83.3,33.34,183.3,39.34,87.5,51.84,108.3,,
20.844,37.5,23.844,58.3,33.344,162.5,39.344,91.7,51.844,116.7,,
20.848,50,23.848,58.3,33.348,170.8,39.348,104.2,51.848,133.3,,
20.852,54.2,23.852,41.7,33.352,200,39.352,91.7,51.852,104.2,,
20.856,50,23.856,70.8,33.356,166.7,39.356,95.8,51.856,137.5,,
20.86,70.8,23.86,66.7,33.36,129.2,39.36,150,51.86,104.2,,
20.864,20.8,23.864,66.7,33.364,158.3,39.364,112.5,51.864,95.8,,
20.868,58.3,23.868,66.7,33.368,145.8,39.368,91.7,51.868,133.3,,
20.872,58.3,23.872,50,33.372,120.8,39.372,87.5,51.872,100,,
20.876,62.5,23.876,29.2,33.376,179.2,39.376,95.8,51.876,133.3,,
20.88,54.2,23.88,50,33.38,183.3,39.38,133.3,51.88,100,,
20.884,37.5,23.884,50,33.384,162.5,39.384,125,51.884,100,,
20.888,41.7,23.888,66.7,33.388,187.5,39.388,91.7,51.888,75,,
20.892,62.5,23.892,50,33.392,170.8,39.392,116.7,,,,
20.896,41.7,23.896,50,33.396,166.7,39.396,87.5,,,,
20.9,70.8,23.9,104.2,33.4,158.3,39.4,100,,,,
20.904,41.7,23.904,58.3,33.404,225,39.404,100,,,,
20.908,75,23.908,33.3,33.408,187.5,39.408,112.5,,,,
20.912,41.7,23.912,41.7,33.412,175,39.412,75,,,,
20.916,54.2,23.916,58.3,33.416,183.3,39.416,66.7,,,,
20.92,37.5,23.92,41.7,33.42,133.3,39.42,95.8,,,,
20.924,58.3,23.924,62.5,33.424,162.5,39.424,104.2,,,,
20.928,29.2,23.928,79.2,33.428,183.3,39.428,91.7,,,,
20.932,58.3,23.932,58.3,33.432,200,39.432,95.8,,,,
20.936,58.3,23.936,79.2,33.436,187.5,39.436,87.5,,,,
20.94,54.2,23.94,58.3,33.44,191.7,39.44,100,,,,
20.944,33.3,23.944,41.7,33.444,170.8,39.444,100,,,,
20.948,50,23.948,41.7,33.448,183.3,39.448,100,,,,
20.952,37.5,23.952,45.8,33.452,175,39.452,100,,,,
20.956,50,23.956,41.7,33.456,150,39.456,91.7,,,,
20.96,45.8,23.96,83.3,33.46,175,39.46,75,,,,
20.964,41.7,23.964,62.5,33.464,208.3,39.464,83.3,,,,
20.968,62.5,23.968,108.3,33.468,200,39.468,70.8,,,,
20.972,62.5,23.972,54.2,33.472,175,39.472,70.8,,,,
20.976,41.7,23.976,66.7,33.476,191.7,39.476,108.3,,,,
20.98,54.2,23.98,83.3,33.48,141.7,39.48,137.5,,,,
20.984,45.8,23.984,41.7,33.484,183.3,39.484,108.3,,,,
20.988,66.7,23.988,75,33.488,208.3,39.488,95.8,,,,
20.992,70.8,23.992,62.5,33.492,170.8,39.492,66.7,,,,
20.996,41.7,23.996,33.3,33.496,187.5,39.496,108.3,,,,
21,41.7,24,58.3,33.5,141.7,39.5,83.3,,,,
,,,,33.504,158.3,,,,,,
,,,,33.508,175,,,,,,
,,,,33.512,175,,,,,,
,,,,33.516,145.8,,,,,,
,,,,33.52,187.5,,,,,,
,,,,33.524,108.3,,,,,,
,,,,33.528,116.7,,,,,,
,,,,33.532,175,,,,,,
,,,,33.536,187.5,,,,,,
,,,,33.54,166.7,,,,,,
,,,,33.544,145.8,,,,,,
,,,,33.548,162.5,,,,,,
,,,,33.552,162.5,,,,,,
,,,,33.556,145.8,,,,,,
,,,,33.56,120.8,,,,,,
,,,,33.564,133.3,,,,,,
,,,,33.568,150,,,,,,
,,,,33.572,220.8,,,,,,
,,,,33.576,145.8,,,,,,
,,,,33.58,137.5,,,,,,
,,,,33.584,183.3,,,,,,
,,,,33.588,170.8,,,,,,
,,,,33.592,141.7,,,,,,
,,,,33.596,170.8,,,,,,
,,,,33.6,191.7,,,,,,
,,,,33.604,158.3,,,,,,
,,,,33.608,91.7,,,,,,
,,,,33.612,183.3,,,,,,
,,,,33.616,154.2,,,,,,
,,,,33.62,179.2,,,,,,
,,,,33.624,175,,,,,,
,,,,33.628,158.3,,,,,,
,,,,33.632,162.5,,,,,,
,,,,33.636,170.8,,,,,,
,,,,33.64,162.5,,,,,,
,,,,33.644,158.3,,,,,,
,,,,33.648,158.3,,,,,,
,,,,33.652,220.8,,,,,,
,,,,33.656,166.7,,,,,,
,,,,33.66,220.8,,,,,,
,,,,33.664,154.2,,,,,,
,,,,33.668,133.3,,,,,,
,,,,33.672,133.3,,,,,,
,,,,33.676,166.7,,,,,,
,,,,33.68,133.3,,,,,,
,,,,33.684,129.2,,,,,,
,,,,33.688,195.8,,,,,,
,,,,33.692,162.5,,,,,,
,,,,33.696,162.5,,,,,,
,,,,33.7,162.5,,,,,,
,,,,33.704,154.2,,,,,,
,,,,33.708,154.2,,,,,,
,,,,33.712,125,,,,,,
,,,,33.716,175,,,,,,
,,,,33.72,179.2,,,,,,
,,,,33.724,166.7,,,,,,
,,,,33.728,150,,,,,,
,,,,33.732,158.3,,,,,,
,,,,33.736,150,,,,,,
,,,,33.74,158.3,,,,,,
,,,,33.744,191.7,,,,,,
,,,,33.748,116.7,,,,,,
,,,,33.752,170.8,,,,,,
,,,,33.756,154.2,,,,,,
,,,,33.76,183.3,,,,,,
,,,,33.764,200,,,,,,
,,,,33.768,145.8,,,,,,
,,,,33.772,158.3,,,,,,
,,,,33.776,150,,,,,,
,,,,33.78,191.7,,,,,,
,,,,33.784,162.5,,,,,,
,,,,33.788,170.8,,,,,,
,,,,33.792,150,,,,,,
,,,,33.796,145.8,,,,,,
,,,,33.8,137.5,,,,,,
,,,,33.804,162.5,,,,,,
,,,,33.808,204.2,,,,,,
,,,,33.812,170.8,,,,,,
,,,,33.816,175,,,,,,
,,,,33.82,91.7,,,,,,
,,,,33.824,200,,,,,,
,,,,33.828,133.3,,,,,,
,,,,33.832,133.3,,,,,,
,,,,33.836,162.5,,,,,,
,,,,33.84,195.8,,,,,,
,,,,33.844,183.3,,,,,,
,,,,33.848,191.7,,,,,,
,,,,33.852,179.2,,,,,,
,,,,33.856,116.7,,,,,,
,,,,33.86,195.8,,,,,,
,,,,33.864,129.2,,,,,,
,,,,33.868,104.2,,,,,,
,,,,33.872,145.8,,,,,,
,,,,33.876,162.5,,,,,,
,,,,33.88,158.3,,,,,,
,,,,33.884,129.2,,,,,,
,,,,33.888,179.2,,,,,,
,,,,33.892,120.8,,,,,,
,,,,33.896,158.3,,,,,,
,,,,33.9,200,,,,,,
,,,,33.904,208.3,,,,,,
,,,,33.908,175,,,,,,
,,,,33.912,154.2,,,,,,
,,,,33.916,170.8,,,,,,
,,,,33.92,179.2,,,,,,
,,,,33.924,129.2,,,,,,
,,,,33.928,162.5,,,,,,
,,,,33.932,116.7,,,,,,
,,,,33.936,137.5,,,,,,
,,,,33.94,150,,,,,,
,,,,33.944,145.8,,,,,,
,,,,33.948,137.5,,,,,,
,,,,33.952,166.7,,,,,,
,,,,33.956,162.5,,,,,,
,,,,33.96,154.2,,,,,,
,,,,33.964,137.5,,,,,,
,,,,33.968,145.8,,,,,,
,,,,33.972,120.8,,,,,,
,,,,33.976,120.8,,,,,,
,,,,33.98,166.7,,,,,,
,,,,33.984,108.3,,,,,,
,,,,33.988,125,,,,,,
,,,,33.992,154.2,,,,,,
,,,,33.996,150,,,,,,
,,,,34,137.5,,,,,,