File: data/40%.csv
111theta,111intensity,200theta,200intensity,220theta,220intensity,311theta,311intensity,222theta,222intensity,400theta,400intensity
18.5,75,21.5,54.2,31,87.5,37,87.5,49.5,79.2,51.9,120.8
18.504,87.5,21.504,79.2,31.004,79.2,37.004,83.3,49.504,108.3,51.904,145.8
18.508,37.5,21.508,83.3,31.008,70.8,37.008,112.5,49.508,79.2,51.908,100
18.512,70.8,21.512,62.5,31.012,133.3,37.012,150,49.512,75,51.912,141.7
18.516,45.8,21.516,79.2,31.016,133.3,37.016,75,49.516,87.5,51.916,112.5
18.52,50,21.52,87.5,31.02,91.7,37.02,100,49.52,104.2,51.92,100
18.524,58.3,21.524,75,31.024,120.8,37.024,112.5,49.524,87.5,51.924,145.8
18.528,29.2,21.528,79.2,31.028,66.7,37.028,58.3,49.528,108.3,51.928,129.2
18.532,45.8,21.532,58.3,31.032,100,37.032,116.7,49.532,104.2,51.932,79.2
18.536,62.5,21.536,79.2,31.036,87.5,37.036,87.5,49.536,100,51.936,120.8
18.54,79.2,21.54,95.8,31.04,83.3,37.04,120.8,49.54,83.3,51.94,95.8
18.544,33.3,21.544,62.5,31.044,62.5,37.044,120.8,49.544,137.5,51.944,120.8
18.548,41.7,21.548,70.8,31.048,79.2,37.048,95.8,49.548,58.3,51.948,162.5
18.552,54.2,21.552,58.3,31.052,91.7,37.052,91.7,49.552,87.5,51.952,158.3
18.556,45.8,21.556,79.2,31.056,116.7,37.056,95.8,49.556,95.8,51.956,116.7
18.56,50,21.56,83.3,31.06,62.5,37.06,150,49.56,79.2,51.96,129.2
18.564,66.7,21.564,79.2,31.064,95.8,37.064,116.7,49.564,70.8,51.964,120.8
18.568,37.5,21.568,83.3,31.068,95.8,37.068,137.5,49.568,108.3,51.968,120.8
18.572,29.2,21.572,87.5,31.072,83.3,37.072,133.3,49.572,58.3,51.972,120.8
18.576,50,21.576,100,31.076,70.8,37.076,112.5,49.576,95.8,51.976,116.7
18.58,62.5,21.58,75,31.08,75,37.08,133.3,49.58,66.7,51.98,145.8
18.584,62.5,21.584,91.7,31.084,108.3,37.084,87.5,49.584,116.7,51.984,112.5
18.588,66.7,21.588,62.5,31.088,100,37.088,108.3,49.588,100,51.988,133.3
18.592,91.7,21.592,91.7,31.092,75,37.092,79.2,49.592,75,51.992,112.5
18.596,45.8,21.596,75,31.096,87.5,37.096,137.5,49.596,66.7,51.996,145.8
18.6,41.7,21.6,75,31.1,95.8,37.1,116.7,49.6,108.3,52,179.2
18.604,75,21.604,112.5,31.104,112.5,37.104,87.5,49.604,87.5,52.004,154.2
18.608,91.7,21.608,79.2,31.108,100,37.108,83.3,49.608,91.7,52.008,145.8
18.612,75,21.612,91.7,31.112,83.3,37.112,87.5,49.612,83.3,52.012,145.8
18.616,50,21.616,87.5,31.116,100,37.116,75,49.616,75,52.016,150
18.62,45.8,21.62,58.3,31.12,70.8,37.12,129.2,49.62,79.2,52.02,154.2
18.624,62.5,21.624,79.2,31.124,100,37.124,70.8,49.624,70.8,52.024,141.7
18.628,62.5,21.628,54.2,31.128,62.5,37.128,54.2,49.628,87.5,52.028,116.7
18.632,45.8,21.632,87.5,31.132,104.2,37.132,125,49.632,70.8,52.032,183.3
18.636,62.5,21.636,54.2,31.136,83.3,37.136,87.5,49.636,75,52.036,145.8
18.64,66.7,21.64,75,31.14,100,37.14,112.5,49.64,108.3,52.04,187.5
18.644,66.7,21.644,58.3,31.144,91.7,37.144,95.8,49.644,116.7,52.044,166.7
18.648,100,21.648,45.8,31.148,137.5,37.148,112.5,49.648,83.3,52.048,191.7
18.652,45.8,21.652,83.3,31.152,108.3,37.152,83.3,49.652,120.8,52.052,175
18.656,62.5,21.656,95.8,31.156,54.2,37.156,179.2,49.656,112.5,52.056,145.8
18.66,66.7,21.66,79.2,31.16,79.2,37.16,133.3,49.66,50,52.06,220.8
18.664,70.8,21.664,108.3,31.164,100,37.164,79.2,49.664,75,52.064,166.7
18.668,41.7,21.668,83.3,31.168,125,37.168,91.7,49.668,79.2,52.068,175
18.672,70.8,21.672,79.2,31.172,70.8,37.172,129.2,49.672,70.8,52.072,170.8
18.676,87.5,21.676,79.2,31.176,91.7,37.176,108.3,49.676,104.2,52.076,183.3
18.68,66.7,21.68,45.8,31.18,70.8,37.18,145.8,49.68,83.3,52.08,204.2
18.684,83.3,21.684,75,31.184,104.2,37.184,108.3,49.684,91.7,52.084,175
18.688,37.5,21.688,87.5,31.188,108.3,37.188,108.3,49.688,70.8,52.088,208.3
18.692,70.8,21.692,75,31.192,91.7,37.192,104.2,49.692,70.8,52.092,200
18.696,62.5,21.696,66.7,31.196,100,37.196,133.3,49.696,104.2,52.096,175
18.7,62.5,21.7,75,31.2,108.3,37.2,70.8,49.7,129.2,52.1,208.3
18.704,62.5,21.704,66.7,31.204,120.8,37.204,112.5,49.704,70.8,52.104,208.3
18.708,70.8,21.708,66.7,31.208,100,37.208,120.8,49.708,112.5,52.108,162.5
18.712,87.5,21.712,108.3,31.212,141.7,37.212,95.8,49.712,95.8,52.112,229.2
18.716,58.3,21.716,95.8,31.216,125,37.216,62.5,49.716,87.5,52.116,191.7
18.72,79.2,21.72,95.8,31.22,87.5,37.22,137.5,49.72,66.7,52.12,187.5
18.724,37.5,21.724,104.2,31.224,125,37.224,116.7,49.724,91.7,52.124,229.2
18.728,120.8,21.728,104.2,31.228,75,37.228,120.8,49.728,70.8,52.128,200
18.732,62.5,21.732,79.2,31.232,104.2,37.232,83.3,49.732,91.7,52.132,275
18.736,29.2,21.736,75,31.236,137.5,37.236,129.2,49.736,66.7,52.136,195.8
18.74,54.2,21.74,75,31.24,91.7,37.24,104.2,49.74,104.2,52.14,195.8
18.744,58.3,21.744,79.2,31.244,120.8,37.244,66.7,49.744,66.7,52.144,158.3
18.748,58.3,21.748,83.3,31.248,120.8,37.248,108.3,49.748,62.5,52.148,195.8
18.752,62.5,21.752,112.5,31.252,104.2,37.252,125,49.752,91.7,52.152,191.7
18.756,45.8,21.756,104.2,31.256,83.3,37.256,137.5,49.756,87.5,52.156,179.2
18.76,75,21.76,95.8,31.26,104.2,37.26,129.2,49.76,108.3,52.16,233.3
18.764,79.2,21.764,70.8,31.264,129.2,37.264,125,49.764,75,52.164,262.5
18.768,75,21.768,58.3,31.268,100,37.268,116.7,49.768,58.3,52.168,233.3
18.772,58.3,21.772,91.7,31.272,91.7,37.272,129.2,49.772,79.2,52.172,300
18.776,54.2,21.776,95.8,31.276,104.2,37.276,95.8,49.776,75,52.176,308.3
18.78,37.5,21.78,66.7,31.28,125,37.28,104.2,49.78,45.8,52.18,279.2
18.784,41.7,21.784,83.3,31.284,108.3,37.284,129.2,49.784,87.5,52.184,304.2
18.788,37.5,21.788,75,31.288,125,37.288,112.5,49.788,54.2,52.188,291.7
18.792,62.5,21.792,62.5,31.292,158.3,37.292,141.7,49.792,104.2,52.192,225
18.796,79.2,21.796,95.8,31.296,129.2,37.296,87.5,49.796,87.5,52.196,308.3
18.8,70.8,21.8,66.7,31.3,66.7,37.3,141.7,49.8,91.7,52.2,258.3
18.804,66.7,21.804,104.2,31.304,141.7,37.304,112.5,49.804,116.7,52.204,283.3
18.808,87.5,21.808,50,31.308,95.8,37.308,112.5,49.808,50,52.208,312.5
18.812,41.7,21.812,54.2,31.312,91.7,37.312,129.2,49.812,95.8,52.212,354.2
18.816,45.8,21.816,62.5,31.316,104.2,37.316,104.2,49.816,91.7,52.216,270.8
18.82,54.2,21.82,75,31.32,120.8,37.32,154.2,49.82,41.7,52.22,279.2
18.824,62.5,21.824,79.2,31.324,108.3,37.324,162.5,49.824,87.5,52.224,337.5
18.828,54.2,21.828,25,31.328,116.7,37.328,104.2,49.828,70.8,52.228,275
18.832,54.2,21.832,87.5,31.332,125,37.332,137.5,49.832,95.8,52.232,329.2
18.836,66.7,21.836,83.3,31.336,125,37.336,104.2,49.836,37.5,52.236,312.5
18.84,58.3,21.84,87.5,31.34,154.2,37.34,91.7,49.84,95.8,52.24,283.3
18.844,70.8,21.844,62.5,31.344,133.3,37.344,112.5,49.844,95.8,52.244,391.7
18.848,58.3,21.848,75,31.348,141.7,37.348,166.7,49.848,62.5,52.248,354.2
18.852,83.3,21.852,62.5,31.352,125,37.352,112.5,49.852,91.7,52.252,370.8
18.856,50,21.856,58.3,31.356,133.3,37.356,108.3,49.856,75,52.256,279.2
18.86,50,21.86,75,31.36,87.5,37.36,108.3,49.86,50,52.26,358.3
18.864,66.7,21.864,87.5,31.364,125,37.364,125,49.864,83.3,52.264,375
18.868,58.3,21.868,100,31.368,112.5,37.368,87.5,49.868,70.8,52.268,379.2
18.872,37.5,21.872,79.2,31.372,100,37.372,120.8,49.872,104.2,52.272,333.3
18.876,66.7,21.876,62.5,31.376,120.8,37.376,125,49.876,75,52.276,291.7
18.88,79.2,21.88,45.8,31.38,112.5,37.38,104.2,49.88,83.3,52.28,370.8
18.884,66.7,21.884,70.8,31.384,95.8,37.384,145.8,49.884,70.8,52.284,441.7
18.888,100,21.888,100,31.388,137.5,37.388,116.7,49.888,141.7,52.288,287.5
18.892,50,21.892,54.2,31.392,133.3,37.392,137.5,49.892,91.7,52.292,333.3
18.896,41.7,21.896,62.5,31.396,170.8,37.396,100,49.896,83.3,52.296,404.2
18.9,62.5,21.9,104.2,31.4,116.7,37.4,137.5,49.9,70.8,52.3,458.3
18.904,45.8,21.904,62.5,31.404,108.3,37.404,108.3,49.904,83.3,52.304,429.2
18.908,66.7,21.908,91.7,31.408,108.3,37.408,137.5,49.908,37.5,52.308,400
18.912,83.3,21.912,91.7,31.412,120.8,37.412,104.2,49.912,83.3,52.312,366.7
18.916,33.3,21.916,91.7,31.416,129.2,37.416,112.5,49.916,108.3,52.316,429.2
18.92,79.2,21.92,50,31.42,108.3,37.42,137.5,49.92,87.5,52.32,420.8
18.924,54.2,21.924,79.2,31.424,108.3,37.424,108.3,49.924,70.8,52.324,395.8
18.928,66.7,21.928,104.2,31.428,104.2,37.428,120.8,49.928,87.5,52.328,391.7
18.932,75,21.932,79.2,31.432,83.3,37.432,108.3,49.932,91.7,52.332,483.3
18.936,37.5,21.936,70.8,31.436,133.3,37.436,133.3,49.936,83.3,52.336,433.3
18.94,91.7,21.94,108.3,31.44,133.3,37.44,162.5,49.94,79.2,52.34,379.2
18.944,66.7,21.944,87.5,31.444,137.5,37.444,150,49.944,91.7,52.344,379.2
18.948,87.5,21.948,83.3,31.448,133.3,37.448,154.2,49.948,75,52.348,366.7
18.952,66.7,21.952,70.8,31.452,133.3,37.452,112.5,49.952,66.7,52.352,370.8
18.956,58.3,21.956,108.3,31.456,120.8,37.456,100,49.956,83.3,52.356,362.5
18.96,79.2,21.96,70.8,31.46,120.8,37.46,125,49.96,120.8,52.36,375
18.964,95.8,21.964,62.5,31.464,108.3,37.464,150,49.964,87.5,52.364,400
18.968,83.3,21.968,87.5,31.468,104.2,37.468,91.7,49.968,75,52.368,454.2
18.972,83.3,21.972,79.2,31.472,125,37.472,91.7,49.972,54.2,52.372,383.3
18.976,79.2,21.976,87.5,31.476,150,37.476,120.8,49.976,83.3,52.376,420.8
18.98,41.7,21.98,120.8,31.48,91.7,37.48,112.5,49.98,62.5,52.38,466.7
18.984,75,21.984,83.3,31.484,158.3,37.484,150,49.984,70.8,52.384,370.8
18.988,91.7,21.988,70.8,31.488,116.7,37.488,191.7,49.988,100,52.388,366.7
18.992,62.5,21.992,83.3,31.492,112.5,37.492,112.5,49.992,95.8,52.392,283.3
18.996,45.8,21.996,66.7,31.496,133.3,37.496,104.2,49.996,62.5,52.396,429.2
19,70.8,22,66.7,31.5,108.3,37.5,187.5,50,66.7,52.4,420.8
19.004,66.7,22.004,95.8,31.504,108.3,37.504,104.2,50.004,62.5,52.404,379.2
19.008,58.3,22.008,62.5,31.508,129.2,37.508,112.5,50.008,83.3,52.408,416.7
19.012,66.7,22.012,83.3,31.512,145.8,37.512,158.3,50.012,79.2,52.412,366.7
19.016,87.5,22.016,108.3,31.516,150,37.516,137.5,50.016,95.8,52.416,337.5
19.02,50,22.02,83.3,31.52,112.5,37.52,129.2,50.02,112.5,52.42,362.5
19.024,70.8,22.024,79.2,31.524,120.8,37.524,170.8,50.024,137.5,52.424,279.2
19.028,54.2,22.028,62.5,31.528,129.2,37.528,116.7,50.028,62.5,52.428,308.3
19.032,70.8,22.032,70.8,31.532,129.2,37.532,129.2,50.032,104.2,52.432,295.8
19.036,54.2,22.036,112.5,31.536,125,37.536,125,50.036,83.3,52.436,291.7
19.04,41.7,22.04,79.2,31.54,158.3,37.54,150,50.04,70.8,52.44,308.3
19.044,70.8,22.044,70.8,31.544,154.2,37.544,183.3,50.044,79.2,52.444,312.5
19.048,108.3,22.048,66.7,31.548,150,37.548,129.2,50.048,87.5,52.448,316.7
19.052,83.3,22.052,70.8,31.552,162.5,37.552,166.7,50.052,62.5,52.452,308.3
19.056,87.5,22.056,79.2,31.556,120.8,37.556,170.8,50.056,75,52.456,350
19.06,58.3,22.06,100,31.56,133.3,37.56,129.2,50.06,87.5,52.46,300
19.064,79.2,22.064,62.5,31.564,104.2,37.564,129.2,50.064,125,52.464,358.3
19.068,79.2,22.068,95.8,31.568,133.3,37.568,162.5,50.068,120.8,52.468,266.7
19.072,70.8,22.072,75,31.572,129.2,37.572,108.3,50.072,79.2,52.472,341.7
19.076,45.8,22.076,120.8,31.576,166.7,37.576,116.7,50.076,95.8,52.476,333.3
19.08,125,22.08,137.5,31.58,166.7,37.58,145.8,50.08,100,52.48,283.3
19.084,83.3,22.084,62.5,31.584,166.7,37.584,141.7,50.084,79.2,52.484,325
19.088,75,22.088,91.7,31.588,179.2,37.588,116.7,50.088,83.3,52.488,295.8
19.092,62.5,22.092,116.7,31.592,137.5,37.592,170.8,50.092,125,52.492,266.7
19.096,66.7,22.096,91.7,31.596,116.7,37.596,125,50.096,87.5,52.496,300
19.1,95.8,22.1,91.7,31.6,83.3,37.6,100,50.1,87.5,52.5,312.5
19.104,70.8,22.104,91.7,31.604,175,37.604,133.3,50.104,75,52.504,316.7
19.108,70.8,22.108,50,31.608,112.5,37.608,150,50.108,75,52.508,283.3
19.112,87.5,22.112,79.2,31.612,150,37.612,125,50.112,66.7,52.512,300
19.116,87.5,22.116,70.8,31.616,166.7,37.616,112.5,50.116,75,52.516,333.3
19.12,95.8,22.12,100,31.62,179.2,37.62,125,50.12,133.3,52.52,262.5
19.124,91.7,22.124,116.7,31.624,141.7,37.624,95.8,50.124,83.3,52.524,266.7
19.128,79.2,22.128,100,31.628,154.2,37.628,175,50.128,70.8,52.528,337.5
19.132,54.2,22.132,112.5,31.632,145.8,37.632,145.8,50.132,95.8,52.532,291.7
19.136,116.7,22.136,54.2,31.636,133.3,37.636,120.8,50.136,129.2,52.536,262.5
19.14,100,22.14,87.5,31.64,137.5,37.64,154.2,50.14,104.2,52.54,291.7
19.144,50,22.144,87.5,31.644,125,37.644,125,50.144,95.8,52.544,279.2
19.148,75,22.148,70.8,31.648,137.5,37.648,120.8,50.148,83.3,52.548,312.5
19.152,95.8,22.152,112.5,31.652,166.7,37.652,141.7,50.152,100,52.552,300
19.156,116.7,22.156,116.7,31.656,137.5,37.656,120.8,50.156,87.5,52.556,262.5
19.16,45.8,22.16,91.7,31.66,170.8,37.66,112.5,50.16,100,52.56,262.5
19.164,104.2,22.164,91.7,31.664,154.2,37.664,129.2,50.164,133.3,52.564,287.5
19.168,87.5,22.168,87.5,31.668,145.8,37.668,166.7,50.168,91.7,52.568,250
19.172,83.3,22.172,112.5,31.672,166.7,37.672,179.2,50.172,95.8,52.572,258.3
19.176,83.3,22.176,158.3,31.676,154.2,37.676,150,50.176,108.3,52.576,354.2
19.18,50,22.18,95.8,31.68,145.8,37.68,191.7,50.18,116.7,52.58,312.5
19.184,70.8,22.184,91.7,31.684,150,37.684,129.2,50.184,87.5,52.584,270.8
19.188,50,22.188,91.7,31.688,183.3,37.688,170.8,50.188,66.7,52.588,312.5
19.192,104.2,22.192,83.3,31.692,175,37.692,166.7,50.192,79.2,52.592,304.2
19.196,100,22.196,129.2,31.696,154.2,37.696,154.2,50.196,95.8,52.596,237.5
19.2,108.3,22.2,125,31.7,183.3,37.7,166.7,50.2,100,52.6,245.8
19.204,95.8,22.204,95.8,31.704,191.7,37.704,166.7,50.204,104.2,52.604,275
19.208,70.8,22.208,87.5,31.708,137.5,37.708,195.8,50.208,79.2,52.608,312.5
19.212,120.8,22.212,108.3,31.712,120.8,37.712,170.8,50.212,58.3,52.612,279.2
19.216,91.7,22.216,141.7,31.716,116.7,37.716,225,50.216,112.5,52.616,383.3
19.22,100,22.22,108.3,31.72,158.3,37.72,150,50.22,83.3,52.62,312.5
19.224,75,22.224,150,31.724,133.3,37.724,162.5,50.224,87.5,52.624,333.3
19.228,100,22.228,100,31.728,158.3,37.728,133.3,50.228,108.3,52.628,262.5
19.232,108.3,22.232,104.2,31.732,120.8,37.732,150,50.232,79.2,52.632,279.2
19.236,100,22.236,95.8,31.736,158.3,37.736,133.3,50.236,83.3,52.636,329.2
19.24,112.5,22.24,108.3,31.74,145.8,37.74,179.2,50.24,91.7,52.64,279.2
19.244,104.2,22.244,141.7,31.744,158.3,37.744,162.5,50.244,87.5,52.644,270.8
19.248,87.5,22.248,150,31.748,187.5,37.748,187.5,50.248,120.8,52.648,383.3
19.252,95.8,22.252,112.5,31.752,154.2,37.752,158.3,50.252,100,52.652,187.5
19.256,120.8,22.256,108.3,31.756,137.5,37.756,170.8,50.256,129.2,52.656,275
19.26,116.7,22.26,137.5,31.76,141.7,37.76,183.3,50.26,133.3,52.66,258.3
19.264,112.5,22.264,154.2,31.764,170.8,37.764,175,50.264,54.2,52.664,245.8
19.268,120.8,22.268,108.3,31.768,200,37.768,183.3,50.268,120.8,52.668,329.2
19.272,112.5,22.272,133.3,31.772,187.5,37.772,166.7,50.272,91.7,52.672,308.3
19.276,95.8,22.276,129.2,31.776,204.2,37.776,179.2,50.276,100,52.676,279.2
19.28,95.8,22.28,158.3,31.78,170.8,37.78,179.2,50.28,112.5,52.68,312.5
19.284,137.5,22.284,145.8,31.784,179.2,37.784,179.2,50.284,75,52.684,341.7
19.288,129.2,22.288,129.2,31.788,166.7,37.788,154.2,50.288,91.7,52.688,270.8
19.292,120.8,22.292,145.8,31.792,158.3,37.792,154.2,50.292,112.5,52.692,287.5
19.296,145.8,22.296,112.5,31.796,154.2,37.796,200,50.296,87.5,52.696,275
19.3,116.7,22.3,125,31.8,220.8,37.8,200,50.3,108.3,52.7,316.7
19.304,120.8,22.304,125,31.804,116.7,37.804,137.5,50.304,112.5,52.704,295.8
19.308,125,22.308,137.5,31.808,154.2,37.808,216.7,50.308,112.5,52.708,337.5
19.312,141.7,22.312,137.5,31.812,175,37.812,204.2,50.312,133.3,52.712,254.2
19.316,145.8,22.316,145.8,31.816,179.2,37.816,187.5,50.316,95.8,52.716,308.3
19.32,170.8,22.32,95.8,31.82,187.5,37.82,179.2,50.32,104.2,52.72,241.7
19.324,120.8,22.324,145.8,31.824,225,37.824,195.8,50.324,95.8,52.724,233.3
19.328,179.2,22.328,154.2,31.828,179.2,37.828,225,50.328,66.7,52.728,320.8
19.332,175,22.332,129.2,31.832,154.2,37.832,275,50.332,104.2,52.732,229.2
19.336,141.7,22.336,191.7,31.836,137.5,37.836,175,50.336,91.7,52.736,237.5
19.34,141.7,22.34,150,31.84,166.7,37.84,216.7,50.34,62.5,52.74,250
19.344,154.2,22.344,112.5,31.844,162.5,37.844,291.7,50.344,91.7,52.744,245.8
19.348,129.2,22.348,133.3,31.848,129.2,37.848,212.5,50.348,154.2,52.748,258.3
19.352,158.3,22.352,162.5,31.852,208.3,37.852,216.7,50.352,100,52.752,225
19.356,170.8,22.356,145.8,31.856,166.7,37.856,220.8,50.356,108.3,52.756,212.5
19.36,129.2,22.36,137.5,31.86,212.5,37.86,266.7,50.36,91.7,52.76,212.5
19.364,112.5,22.364,150,31.864,212.5,37.864,283.3,50.364,79.2,52.764,270.8
19.368,220.8,22.368,166.7,31.868,183.3,37.868,229.2,50.368,83.3,52.768,241.7
19.372,141.7,22.372,141.7,31.872,162.5,37.872,312.5,50.372,95.8,52.772,245.8
19.376,170.8,22.376,175,31.876,200,37.876,229.2,50.376,112.5,52.776,225
19.38,175,22.38,145.8,31.88,212.5,37.88,179.2,50.38,120.8,52.78,279.2
19.384,158.3,22.384,145.8,31.884,145.8,37.884,250,50.384,116.7,52.784,200
19.388,212.5,22.388,162.5,31.888,208.3,37.888,275,50.388,100,52.788,237.5
19.392,170.8,22.392,158.3,31.892,183.3,37.892,258.3,50.392,91.7,52.792,237.5
19.396,112.5,22.396,183.3,31.896,212.5,37.896,279.2,50.396,108.3,52.796,158.3
19.4,187.5,22.4,166.7,31.9,220.8,37.9,241.7,50.4,95.8,52.8,212.5
19.404,162.5,22.404,133.3,31.904,208.3,37.904,283.3,50.404,116.7,52.804,287.5
19.408,204.2,22.408,208.3,31.908,175,37.908,300,50.408,120.8,52.808,208.3
19.412,162.5,22.412,179.2,31.912,166.7,37.912,279.2,50.412,133.3,52.812,245.8
19.416,195.8,22.416,137.5,31.916,250,37.916,275,50.416,91.7,52.816,233.3
19.42,200,22.42,179.2,31.92,229.2,37.92,316.7,50.42,83.3,52.82,200
19.424,245.8,22.424,200,31.924,220.8,37.924,241.7,50.424,108.3,52.824,179.2
19.428,195.8,22.428,220.8,31.928,250,37.928,412.5,50.428,75,52.828,204.2
19.432,200,22.432,170.8,31.932,145.8,37.932,291.7,50.432,120.8,52.832,162.5
19.436,166.7,22.436,220.8,31.936,220.8,37.936,312.5,50.436,66.7,52.836,145.8
19.44,187.5,22.44,250,31.94,179.2,37.94,345.8,50.44,83.3,52.84,204.2
19.444,229.2,22.444,175,31.944,191.7,37.944,304.2,50.444,125,52.844,212.5
19.448,233.3,22.448,204.2,31.948,237.5,37.948,320.8,50.448,83.3,52.848,195.8
19.452,270.8,22.452,183.3,31.952,237.5,37.952,370.8,50.452,95.8,52.852,208.3
19.456,250,22.456,237.5,31.956,208.3,37.956,354.2,50.456,120.8,52.856,170.8
19.46,270.8,22.46,187.5,31.96,250,37.96,341.7,50.46,116.7,52.86,195.8
19.464,295.8,22.464,204.2,31.964,195.8,37.964,316.7,50.464,137.5,52.864,195.8
19.468,270.8,22.468,266.7,31.968,262.5,37.968,445.8,50.468,108.3,52.868,158.3
19.472,325,22.472,212.5,31.972,250,37.972,333.3,50.472,116.7,52.872,187.5
19.476,300,22.476,225,31.976,225,37.976,395.8,50.476,100,52.876,162.5
19.48,270.8,22.48,233.3,31.98,229.2,37.98,379.2,50.48,145.8,52.88,133.3
19.484,325,22.484,237.5,31.984,225,37.984,375,50.484,116.7,52.884,216.7
19.488,329.2,22.488,229.2,31.988,204.2,37.988,487.5,50.488,150,52.888,154.2
19.492,337.5,22.492,250,31.992,279.2,37.992,425,50.492,145.8,52.892,166.7
19.496,237.5,22.496,233.3,31.996,220.8,37.996,433.3,50.496,104.2,52.896,191.7
19.5,341.7,22.5,254.2,32,204.2,38,487.5,50.5,133.3,52.9,175
19.504,329.2,22.504,195.8,32.004,229.2,38.004,416.7,50.504,112.5,52.904,154.2
19.508,375,22.508,250,32.008,237.5,38.008,429.2,50.508,150,52.908,120.8
19.512,387.5,22.512,329.2,32.012,279.2,38.012,366.7,50.512,162.5,52.912,150
19.516,366.7,22.516,245.8,32.016,208.3,38.016,458.3,50.516,129.2,52.916,175
19.52,325,22.52,262.5,32.02,258.3,38.02,445.8,50.52,166.7,52.92,170.8
19.524,362.5,22.524,266.7,32.024,250,38.024,433.3,50.524,129.2,52.924,170.8
19.528,316.7,22.528,312.5,32.028,308.3,38.028,462.5,50.528,141.7,52.928,125
19.532,358.3,22.532,250,32.032,295.8,38.032,612.5,50.532,154.2,52.932,162.5
19.536,362.5,22.536,275,32.036,325,38.036,550,50.536,145.8,52.936,175
19.54,412.5,22.54,316.7,32.04,283.3,38.04,554.2,50.54,166.7,52.94,158.3
19.544,425,22.544,320.8,32.044,250,38.044,700,50.544,100,52.944,108.3
19.548,441.7,22.548,308.3,32.048,275,38.048,558.3,50.548,120.8,52.948,145.8
19.552,341.7,22.552,295.8,32.052,270.8,38.052,545.8,50.552,125,52.952,116.7
19.556,462.5,22.556,325,32.056,333.3,38.056,550,50.556,158.3,52.956,116.7
19.56,416.7,22.56,325,32.06,270.8,38.06,583.3,50.56,150,52.96,150
19.564,433.3,22.564,350,32.064,329.2,38.064,766.7,50.564,145.8,52.964,116.7
19.568,470.8,22.568,333.3,32.068,279.2,38.068,637.5,50.568,137.5,52.968,120.8
19.572,512.5,22.572,358.3,32.072,341.7,38.072,695.8,50.572,95.8,52.972,125
19.576,466.7,22.576,291.7,32.076,316.7,38.076,737.5,50.576,154.2,52.976,129.2
19.58,583.3,22.58,383.3,32.08,279.2,38.08,845.8,50.58,125,52.98,125
19.584,566.7,22.584,354.2,32.084,320.8,38.084,758.3,50.584,166.7,52.984,116.7
19.588,500,22.588,412.5,32.088,358.3,38.088,775,50.588,158.3,52.988,125
19.592,479.2,22.592,345.8,32.092,358.3,38.092,816.7,50.592,150,52.992,154.2
19.596,579.2,22.596,458.3,32.096,308.3,38.096,829.2,50.596,141.7,52.996,129.2
19.6,608.3,22.6,400,32.1,387.5,38.1,645.8,50.6,108.3,53,120.8
19.604,541.7,22.604,445.8,32.104,308.3,38.104,745.8,50.604,166.7,53.004,100
19.608,650,22.608,395.8,32.108,329.2,38.108,833.3,50.608,125,53.008,120.8
19.612,537.5,22.612,433.3,32.112,333.3,38.112,833.3,50.612,166.7,53.012,116.7
19.616,620.8,22.616,433.3,32.116,366.7,38.116,904.2,50.616,95.8,53.016,112.5
19.62,595.8,22.62,458.3,32.12,308.3,38.12,870.8,50.62,91.7,53.02,91.7
19.624,720.8,22.624,387.5,32.124,429.2,38.124,954.2,50.624,179.2,53.024,104.2
19.628,658.3,22.628,470.8,32.128,400,38.128,945.8,50.628,158.3,53.028,150
19.632,666.7,22.632,370.8,32.132,362.5,38.132,933.3,50.632,154.2,53.032,120.8
19.636,608.3,22.636,483.3,32.136,425,38.136,862.5,50.636,195.8,53.036,100
19.64,654.2,22.64,520.8,32.14,450,38.14,1012.5,50.64,154.2,53.04,100
19.644,729.2,22.644,558.3,32.144,475,38.144,1037.5,50.644,129.2,53.044,145.8
19.648,637.5,22.648,462.5,32.148,554.2,38.148,866.7,50.648,116.7,53.048,120.8
19.652,691.7,22.652,529.2,32.152,570.8,38.152,833.3,50.652,170.8,53.052,104.2
19.656,725,22.656,483.3,32.156,450,38.156,908.3,50.656,137.5,53.056,91.7
19.66,700,22.66,637.5,32.16,500,38.16,966.7,50.66,137.5,53.06,100
19.664,670.8,22.664,654.2,32.164,462.5,38.164,991.7,50.664,200,53.064,112.5
19.668,683.3,22.668,604.2,32.168,479.2,38.168,983.3,50.668,187.5,53.068,95.8
19.672,725,22.672,604.2,32.172,479.2,38.172,870.8,50.672,108.3,53.072,133.3
19.676,695.8,22.676,558.3,32.176,587.5,38.176,891.7,50.676,162.5,53.076,120.8
19.68,650,22.68,666.7,32.18,525,38.18,845.8,50.68,258.3,53.08,116.7
19.684,750,22.684,600,32.184,500,38.184,1004.2,50.684,175,53.084,120.8
19.688,691.7,22.688,687.5,32.188,608.3,38.188,1012.5,50.688,150,53.088,120.8
19.692,562.5,22.692,633.3,32.192,587.5,38.192,845.8,50.692,170.8,53.092,100
19.696,733.3,22.696,583.3,32.196,595.8,38.196,870.8,50.696,154.2,53.096,112.5
19.7,566.7,22.7,612.5,32.2,616.7,38.2,983.3,50.7,191.7,53.1,141.7
19.704,595.8,22.704,725,32.204,687.5,38.204,808.3,50.704,250,53.104,129.2
19.708,654.2,22.708,825,32.208,625,38.208,933.3,50.708,191.7,53.108,104.2
19.712,629.2,22.712,616.7,32.212,725,38.212,925,50.712,175,53.112,154.2
19.716,520.8,22.716,675,32.216,687.5,38.216,987.5,50.716,179.2,53.116,70.8
19.72,487.5,22.72,675,32.22,666.7,38.22,891.7,50.72,141.7,53.12,158.3
19.724,537.5,22.724,720.8,32.224,720.8,38.224,716.7,50.724,183.3,53.124,104.2
19.728,487.5,22.728,691.7,32.228,879.2,38.228,866.7,50.728,216.7,53.128,95.8
19.732,579.2,22.732,675,32.232,858.3,38.232,854.2,50.732,162.5,53.132,95.8
19.736,554.2,22.736,704.2,32.236,912.5,38.236,804.2,50.736,141.7,53.136,108.3
19.74,612.5,22.74,741.7,32.24,866.7,38.24,808.3,50.74,208.3,53.14,145.8
19.744,604.2,22.744,662.5,32.244,1083.3,38.244,775,50.744,283.3,53.144,87.5
19.748,537.5,22.748,741.7,32.248,1112.5,38.248,866.7,50.748,187.5,53.148,100
19.752,525,22.752,645.8,32.252,950,38.252,704.2,50.752,287.5,53.152,116.7
19.756,575,22.756,720.8,32.256,1129.2,38.256,679.2,50.756,233.3,53.156,120.8
19.76,558.3,22.76,600,32.26,1175,38.26,795.8,50.76,220.8,53.16,116.7
19.764,504.2,22.764,658.3,32.264,1241.7,38.264,837.5,50.764,191.7,53.164,141.7
19.768,558.3,22.768,637.5,32.268,1275,38.268,695.8,50.768,300,53.168,112.5
19.772,508.3,22.772,691.7,32.272,1154.2,38.272,804.2,50.772,266.7,53.172,91.7
19.776,550,22.776,641.7,32.276,1350,38.276,733.3,50.776,237.5,53.176,108.3
19.78,533.3,22.78,620.8,32.28,1454.2,38.28,787.5,50.78,229.2,53.18,87.5
19.784,483.3,22.784,616.7,32.284,1570.8,38.284,795.8,50.784,254.2,53.184,137.5
19.788,545.8,22.788,587.5,32.288,1525,38.288,654.2,50.788,250,53.188,87.5
19.792,512.5,22.792,608.3,32.292,1700,38.292,704.2,50.792,237.5,53.192,129.2
19.796,420.8,22.796,625,32.296,1712.5,38.296,712.5,50.796,308.3,53.196,120.8
19.8,445.8,22.8,683.3,32.3,1725,38.3,725,50.8,266.7,53.2,116.7
19.804,495.8,22.804,579.2,32.304,1733.3,38.304,683.3,50.804,245.8,53.204,125
19.808,416.7,22.808,583.3,32.308,2025,38.308,675,50.808,337.5,53.208,104.2
19.812,366.7,22.812,550,32.312,1979.2,38.312,616.7,50.812,308.3,53.212,137.5
19.816,458.3,22.816,629.2,32.316,2137.5,38.316,779.2,50.816,300,53.216,70.8
19.82,412.5,22.82,545.8,32.32,2012.5,38.32,670.8,50.82,333.3,53.22,133.3
19.824,404.2,22.824,641.7,32.324,2191.7,38.324,720.8,50.824,333.3,53.224,87.5
19.828,387.5,22.828,591.7,32.328,2287.5,38.328,737.5,50.828,341.7,53.228,120.8
19.832,333.3,22.832,512.5,32.332,2300,38.332,725,50.832,354.2,53.232,112.5
19.836,379.2,22.836,654.2,32.336,2570.8,38.336,779.2,50.836,308.3,53.236,120.8
19.84,304.2,22.84,533.3,32.34,2587.5,38.34,691.7,50.84,425,53.24,133.3
19.844,316.7,22.844,620.8,32.344,2795.8,38.344,770.8,50.844,429.2,53.244,116.7
19.848,320.8,22.848,504.2,32.348,2979.2,38.348,691.7,50.848,304.2,53.248,120.8
19.852,354.2,22.852,525,32.352,2541.7,38.352,675,50.852,325,53.252,91.7
19.856,341.7,22.856,500,32.356,2816.7,38.356,600,50.856,387.5,53.256,104.2
19.86,250,22.86,508.3,32.36,2975,38.36,675,50.86,408.3,53.26,116.7
19.864,316.7,22.864,500,32.364,3116.7,38.364,658.3,50.864,416.7,53.264,158.3
19.868,300,22.868,537.5,32.368,3033.3,38.368,737.5,50.868,400,53.268,100
19.872,316.7,22.872,558.3,32.372,3162.5,38.372,658.3,50.872,387.5,53.272,95.8
19.876,283.3,22.876,512.5,32.376,3112.5,38.376,650,50.876,391.7,53.276,87.5
19.88,316.7,22.88,508.3,32.38,3233.3,38.38,691.7,50.88,366.7,53.28,83.3
19.884,291.7,22.884,412.5,32.384,3208.3,38.384,620.8,50.884,379.2,53.284,95.8
19.888,316.7,22.888,429.2,32.388,3050,38.388,683.3,50.888,304.2,53.288,133.3
19.892,275,22.892,445.8,32.392,3162.5,38.392,720.8,50.892,387.5,53.292,116.7
19.896,204.2,22.896,416.7,32.396,3054.2,38.396,791.7,50.896,341.7,53.296,79.2
19.9,216.7,22.9,445.8,32.4,3062.5,38.4,745.8,50.9,454.2,53.3,104.2
19.904,287.5,22.904,450,32.404,2945.8,38.404,637.5,50.904,454.2,53.304,108.3
19.908,208.3,22.908,366.7,32.408,3116.7,38.408,537.5,50.908,358.3,53.308,87.5
19.912,195.8,22.912,450,32.412,2812.5,38.412,650,50.912,379.2,53.312,70.8
19.916,237.5,22.916,400,32.416,3025,38.416,687.5,50.916,429.2,53.316,91.7
19.92,250,22.92,408.3,32.42,2512.5,38.42,487.5,50.92,466.7,53.32,91.7
19.924,275,22.924,350,32.424,2791.7,38.424,579.2,50.924,400,53.324,75
19.928,195.8,22.928,445.8,32.428,2612.5,38.428,516.7,50.928,366.7,53.328,83.3
19.932,208.3,22.932,362.5,32.432,2650,38.432,600,50.932,412.5,53.332,104.2
19.936,220.8,22.936,370.8,32.436,2487.5,38.436,641.7,50.936,416.7,53.336,75
19.94,250,22.94,370.8,32.44,2391.7,38.44,600,50.94,375,53.34,125
19.944,204.2,22.944,320.8,32.444,2408.3,38.444,516.7,50.944,379.2,53.344,100
19.948,254.2,22.948,362.5,32.448,2391.7,38.448,616.7,50.948,358.3,53.348,108.3
19.952,208.3,22.952,391.7,32.452,2200,38.452,612.5,50.952,404.2,53.352,100
19.956,225,22.956,266.7,32.456,2241.7,38.456,445.8,50.956,333.3,53.356,100
19.96,220.8,22.96,358.3,32.46,2354.2,38.46,554.2,50.96,337.5,53.36,95.8
19.964,212.5,22.964,316.7,32.464,2337.5,38.464,495.8,50.964,366.7,53.364,125
19.968,183.3,22.968,187.5,32.468,2191.7,38.468,475,50.968,345.8,53.368,104.2
19.972,229.2,22.972,316.7,32.472,2083.3,38.472,500,50.972,412.5,53.372,116.7
19.976,241.7,22.976,241.7,32.476,2170.8,38.476,416.7,50.976,337.5,53.376,70.8
19.98,241.7,22.98,258.3,32.48,2070.8,38.48,458.3,50.98,375,53.38,104.2
19.984,195.8,22.984,295.8,32.484,2033.3,38.484,508.3,50.984,375,53.384,83.3
19.988,225,22.988,245.8,32.488,2041.7,38.488,470.8,50.988,412.5,53.388,100
19.992,233.3,22.992,250,32.492,2054.2,38.492,391.7,50.992,325,53.392,108.3
19.996,216.7,22.996,216.7,32.496,2095.8,38.496,391.7,50.996,379.2,53.396,108.3
20,245.8,23,170.8,32.5,2000,38.5,441.7,51,362.5,53.4,108.3
20.004,204.2,23.004,187.5,32.504,1933.3,38.504,395.8,51.004,325,53.404,70.8
20.008,183.3,23.008,275,32.508,1941.7,38.508,383.3,51.008,308.3,53.408,79.2
20.012,200,23.012,137.5,32.512,1908.3,38.512,441.7,51.012,308.3,53.412,91.7
20.016,258.3,23.016,212.5,32.516,2054.2,38.516,370.8,51.016,300,53.416,116.7
20.02,204.2,23.02,225,32.52,1937.5,38.52,454.2,51.02,291.7,53.42,120.8
20.024,262.5,23.024,216.7,32.524,1954.2,38.524,429.2,51.024,333.3,53.424,83.3
20.028,245.8,23.028,150,32.528,2012.5,38.528,412.5,51.028,250,53.428,75
20.032,220.8,23.032,166.7,32.532,2095.8,38.532,412.5,51.032,245.8,53.432,91.7
20.036,187.5,23.036,241.7,32.536,2158.3,38.536,466.7,51.036,308.3,53.436,70.8
20.04,237.5,23.04,154.2,32.54,1858.3,38.54,325,51.04,304.2,53.44,116.7
20.044,229.2,23.044,187.5,32.544,1925,38.544,316.7,51.044,316.7,53.444,95.8
20.048,187.5,23.048,170.8,32.548,2070.8,38.548,362.5,51.048,350,53.448,120.8
20.052,283.3,23.052,179.2,32.552,2016.7,38.552,400,51.052,345.8,53.452,125
20.056,187.5,23.056,183.3,32.556,2062.5,38.556,312.5,51.056,266.7,53.456,95.8
20.06,229.2,23.06,125,32.56,2195.8,38.56,329.2,51.06,258.3,53.46,79.2
20.064,270.8,23.064,145.8,32.564,2116.7,38.564,300,51.064,266.7,53.464,100
20.068,258.3,23.068,212.5,32.568,2237.5,38.568,304.2,51.068,250,53.468,87.5
20.072,270.8,23.072,154.2,32.572,2258.3,38.572,262.5,51.072,266.7,53.472,100
20.076,291.7,23.076,145.8,32.576,2120.8,38.576,270.8,51.076,304.2,53.476,75
20.08,291.7,23.08,154.2,32.58,2258.3,38.58,304.2,51.08,250,53.48,91.7
20.084,212.5,23.084,204.2,32.584,2220.8,38.584,266.7,51.084,312.5,53.484,129.2
20.088,208.3,23.088,150,32.588,2079.2,38.588,300,51.088,245.8,53.488,79.2
20.092,287.5,23.092,120.8,32.592,2079.2,38.592,237.5,51.092,287.5,53.492,75
20.096,208.3,23.096,120.8,32.596,2054.2,38.596,333.3,51.096,325,53.496,66.7
20.1,233.3,23.1,75,32.6,1925,38.6,241.7,51.1,233.3,53.5,75
20.104,216.7,23.104,133.3,32.604,1970.8,38.604,254.2,51.104,287.5,53.504,120.8
20.108,229.2,23.108,150,32.608,1979.2,38.608,245.8,51.108,291.7,53.508,100
20.112,316.7,23.112,112.5,32.612,1995.8,38.612,245.8,51.112,254.2,53.512,54.2
20.116,237.5,23.116,104.2,32.616,2037.5,38.616,208.3,51.116,245.8,53.516,104.2
20.12,233.3,23.12,112.5,32.62,1916.7,38.62,275,51.12,258.3,53.52,79.2
20.124,233.3,23.124,83.3,32.624,1745.8,38.624,250,51.124,250,53.524,66.7
20.128,191.7,23.128,108.3,32.628,1741.7,38.628,233.3,51.128,308.3,53.528,112.5
20.132,195.8,23.132,141.7,32.632,1629.2,38.632,212.5,51.132,291.7,53.532,95.8
20.136,250,23.136,154.2,32.636,1591.7,38.636,225,51.136,241.7,53.536,120.8
20.14,208.3,23.14,100,32.64,1604.2,38.64,254.2,51.14,279.2,53.54,83.3
20.144,212.5,23.144,129.2,32.644,1712.5,38.644,208.3,51.144,329.2,53.544,66.7
20.148,266.7,23.148,145.8,32.648,1425,38.648,170.8,51.148,300,53.548,91.7
20.152,191.7,23.152,145.8,32.652,1366.7,38.652,191.7,51.152,262.5,53.552,75
20.156,237.5,23.156,125,32.656,1266.7,38.656,200,51.156,291.7,53.556,91.7
20.16,208.3,23.16,108.3,32.66,1375,38.66,183.3,51.16,362.5,53.56,95.8
20.164,225,23.164,150,32.664,1254.2,38.664,225,51.164,300,53.564,87.5
20.168,179.2,23.168,108.3,32.668,1304.2,38.668,245.8,51.168,287.5,53.568,116.7
20.172,220.8,23.172,150,32.672,1095.8,38.672,158.3,51.172,341.7,53.572,100
20.176,300,23.176,54.2,32.676,1145.8,38.676,200,51.176,295.8,53.576,108.3
20.18,187.5,23.18,108.3,32.68,1016.7,38.68,200,51.18,312.5,53.58,83.3
20.184,241.7,23.184,95.8,32.684,1029.2,38.684,145.8,51.184,287.5,53.584,83.3
20.188,237.5,23.188,112.5,32.688,1066.7,38.688,175,51.188,291.7,53.588,133.3
20.192,175,23.192,116.7,32.692,1079.2,38.692,208.3,51.192,308.3,53.592,116.7
20.196,237.5,23.196,91.7,32.696,925,38.696,191.7,51.196,258.3,53.596,83.3
20.2,183.3,23.2,79.2,32.7,937.5,38.7,145.8,51.2,270.8,53.6,100
20.204,208.3,23.204,125,32.704,837.5,38.704,200,51.204,270.8,53.604,83.3
20.208,220.8,23.208,104.2,32.708,858.3,38.708,154.2,51.208,279.2,53.608,87.5
20.212,237.5,23.212,108.3,32.712,829.2,38.712,158.3,51.212,241.7,53.612,75
20.216,200,23.216,116.7,32.716,854.2,38.716,145.8,51.216,279.2,53.616,116.7
20.22,220.8,23.22,120.8,32.72,820.8,38.72,104.2,51.22,225,53.62,108.3
20.224,145.8,23.224,66.7,32.724,683.3,38.724,175,51.224,275,53.624,83.3
20.228,183.3,23.228,100,32.728,675,38.728,145.8,51.228,241.7,53.628,95.8
20.232,170.8,23.232,112.5,32.732,700,38.732,129.2,51.232,283.3,53.632,104.2
20.236,200,23.236,150,32.736,658.3,38.736,195.8,51.236,366.7,53.636,87.5
20.24,195.8,23.24,120.8,32.74,712.5,38.74,175,51.24,308.3,53.64,83.3
20.244,154.2,23.244,150,32.744,566.7,38.744,145.8,51.244,312.5,53.644,100
20.248,204.2,23.248,83.3,32.748,712.5,38.748,125,51.248,341.7,53.648,116.7
20.252,154.2,23.252,100,32.752,670.8,38.752,175,51.252,258.3,53.652,133.3
20.256,187.5,23.256,104.2,32.756,658.3,38.756,129.2,51.256,279.2,53.656,108.3
20.26,170.8,23.26,95.8,32.76,600,38.76,162.5,51.26,316.7,53.66,100
20.264,158.3,23.264,58.3,32.764,700,38.764,120.8,51.264,391.7,53.664,108.3
20.268,183.3,23.268,108.3,32.768,616.7,38.768,175,51.268,325,53.668,58.3
20.272,129.2,23.272,125,32.772,537.5,38.772,137.5,51.272,275,53.672,125
20.276,216.7,23.276,129.2,32.776,575,38.776,137.5,51.276,295.8,53.676,91.7
20.28,183.3,23.28,112.5,32.78,466.7,38.78,129.2,51.28,300,53.68,91.7
20.284,133.3,23.284,120.8,32.784,450,38.784,187.5,51.284,233.3,53.684,100
20.288,175,23.288,116.7,32.788,491.7,38.788,145.8,51.288,258.3,53.688,104.2
20.292,150,23.292,62.5,32.792,545.8,38.792,145.8,51.292,283.3,53.692,95.8
20.296,141.7,23.296,129.2,32.796,529.2,38.796,154.2,51.296,291.7,53.696,95.8
20.3,129.2,23.3,83.3,32.8,479.2,38.8,137.5,51.3,262.5,53.7,95.8
20.304,158.3,23.304,116.7,32.804,408.3,38.804,108.3,51.304,270.8,53.704,91.7
20.308,150,23.308,91.7,32.808,500,38.808,150,51.308,295.8,53.708,95.8
20.312,170.8,23.312,104.2,32.812,425,38.812,87.5,51.312,283.3,53.712,91.7
20.316,120.8,23.316,83.3,32.816,433.3,38.816,170.8,51.316,229.2,53.716,108.3
20.32,116.7,23.32,95.8,32.82,462.5,38.82,150,51.32,258.3,53.72,79.2
20.324,145.8,23.324,108.3,32.824,458.3,38.824,125,51.324,275,53.724,116.7
20.328,137.5,23.328,120.8,32.828,358.3,38.828,154.2,51.328,258.3,53.728,91.7
20.332,162.5,23.332,100,32.832,329.2,38.832,145.8,51.332,275,53.732,129.2
20.336,108.3,23.336,83.3,32.836,379.2,38.836,133.3,51.336,179.2,53.736,104.2
20.34,116.7,23.34,66.7,32.84,341.7,38.84,137.5,51.34,275,53.74,100
20.344,100,23.344,58.3,32.844,375,38.844,137.5,51.344,233.3,53.744,108.3
20.348,133.3,23.348,116.7,32.848,345.8,38.848,120.8,51.348,245.8,53.748,129.2
20.352,95.8,23.352,83.3,32.852,412.5,38.852,170.8,51.352,216.7,53.752,66.7
20.356,129.2,23.356,104.2,32.856,337.5,38.856,141.7,51.356,254.2,53.756,66.7
20.36,95.8,23.36,79.2,32.86,300,38.86,137.5,51.36,195.8,53.76,79.2
20.364,133.3,23.364,100,32.864,362.5,38.864,166.7,51.364,158.3,53.764,91.7
20.368,154.2,23.368,104.2,32.868,329.2,38.868,112.5,51.368,162.5,53.768,104.2
20.372,170.8,23.372,91.7,32.872,379.2,38.872,158.3,51.372,220.8,53.772,70.8
20.376,70.8,23.376,83.3,32.876,354.2,38.876,116.7,51.376,166.7,53.776,120.8
20.38,116.7,23.38,91.7,32.88,287.5,38.88,162.5,51.38,208.3,53.78,91.7
20.384,95.8,23.384,70.8,32.884,370.8,38.884,112.5,51.384,158.3,53.784,108.3
20.388,100,23.388,104.2,32.888,320.8,38.888,137.5,51.388,233.3,53.788,108.3
20.392,116.7,23.392,125,32.892,258.3,38.892,108.3,51.392,133.3,53.792,108.3
20.396,112.5,23.396,100,32.896,341.7,38.896,166.7,51.396,154.2,53.796,95.8
20.4,125,23.4,75,32.9,325,38.9,100,51.4,191.7,53.8,87.5
20.404,91.7,23.404,104.2,32.904,266.7,38.904,108.3,51.404,208.3,53.804,100
20.408,100,23.408,83.3,32.908,329.2,38.908,100,51.408,187.5,53.808,79.2
20.412,91.7,23.412,66.7,32.912,279.2,38.912,162.5,51.412,175,53.812,95.8
20.416,87.5,23.416,104.2,32.916,241.7,38.916,125,51.416,162.5,53.816,87.5
20.42,120.8,23.42,70.8,32.92,362.5,38.92,141.7,51.42,158.3,53.82,91.7
20.424,100,23.424,70.8,32.924,250,38.924,120.8,51.424,170.8,53.824,83.3
20.428,95.8,23.428,95.8,32.928,275,38.928,145.8,51.428,154.2,53.828,87.5
20.432,75,23.432,79.2,32.932,345.8,38.932,133.3,51.432,216.7,53.832,116.7
20.436,95.8,23.436,104.2,32.936,316.7,38.936,95.8,51.436,162.5,53.836,91.7
20.44,116.7,23.44,75,32.94,287.5,38.94,120.8,51.44,158.3,53.84,79.2
20.444,108.3,23.444,87.5,32.944,245.8,38.944,79.2,51.444,204.2,53.844,83.3
20.448,79.2,23.448,70.8,32.948,200,38.948,162.5,51.448,162.5,53.848,108.3
20.452,87.5,23.452,70.8,32.952,258.3,38.952,141.7,51.452,162.5,53.852,79.2
20.456,66.7,23.456,79.2,32.956,237.5,38.956,150,51.456,154.2,53.856,100
20.46,95.8,23.46,79.2,32.96,254.2,38.96,116.7,51.46,233.3,53.86,120.8
20.464,95.8,23.464,112.5,32.964,200,38.964,125,51.464,120.8,53.864,120.8
20.468,75,23.468,91.7,32.968,258.3,38.968,120.8,51.468,137.5,53.868,87.5
20.472,100,23.472,66.7,32.972,254.2,38.972,125,51.472,162.5,53.872,62.5
20.476,129.2,23.476,100,32.976,225,38.976,120.8,51.476,120.8,53.876,145.8
20.48,83.3,23.48,83.3,32.98,258.3,38.98,166.7,51.48,137.5,53.88,83.3
20.484,112.5,23.484,87.5,32.984,275,38.984,112.5,51.484,195.8,53.884,100
20.488,91.7,23.488,104.2,32.988,250,38.988,150,51.488,120.8,53.888,116.7
20.492,66.7,23.492,87.5,32.992,179.2,38.992,120.8,51.492,150,53.892,104.2
20.496,104.2,23.496,54.2,32.996,225,38.996,112.5,51.496,154.2,53.896,87.5
20.5,112.5,23.5,83.3,33,258.3,39,125,51.5,116.7,53.9,87.5
20.504,91.7,23.504,104.2,33.004,250,39.004,133.3,51.504,145.8,53.904,112.5
20.508,83.3,23.508,62.5,33.008,212.5,39.008,100,51.508,191.7,53.908,100
20.512,100,23.512,62.5,33.012,316.7,39.012,83.3,51.512,116.7,53.912,87.5
20.516,70.8,23.516,83.3,33.016,170.8,39.016,141.7,51.516,145.8,53.916,70.8
20.52,83.3,23.52,125,33.02,220.8,39.02,87.5,51.52,162.5,53.92,112.5
20.524,95.8,23.524,41.7,33.024,195.8,39.024,83.3,51.524,154.2,53.924,91.7
20.528,62.5,23.528,62.5,33.028,208.3,39.028,95.8,51.528,137.5,53.928,91.7
20.532,125,23.532,87.5,33.032,229.2,39.032,120.8,51.532,216.7,53.932,112.5
20.536,100,23.536,83.3,33.036,250,39.036,125,51.536,162.5,53.936,87.5
20.54,125,23.54,75,33.04,258.3,39.04,125,51.54,166.7,53.94,116.7
20.544,91.7,23.544,91.7,33.044,254.2,39.044,108.3,51.544,129.2,53.944,108.3
20.548,79.2,23.548,75,33.048,225,39.048,100,51.548,150,53.948,79.2
20.552,95.8,23.552,75,33.052,229.2,39.052,133.3,51.552,162.5,53.952,91.7
20.556,58.3,23.556,83.3,33.056,220.8,39.056,154.2,51.556,133.3,53.956,112.5
20.56,75,23.56,79.2,33.06,204.2,39.06,70.8,51.56,104.2,53.96,91.7
20.564,79.2,23.564,62.5,33.064,308.3,39.064,95.8,51.564,116.7,53.964,87.5
20.568,75,23.568,75,33.068,204.2,39.068,108.3,51.568,116.7,53.968,129.2
20.572,66.7,23.572,66.7,33.072,191.7,39.072,137.5,51.572,154.2,53.972,116.7
20.576,70.8,23.576,58.3,33.076,266.7,39.076,129.2,51.576,150,53.976,116.7
20.58,95.8,23.58,83.3,33.08,250,39.08,87.5,51.58,137.5,53.98,87.5
20.584,79.2,23.584,95.8,33.084,220.8,39.084,137.5,51.584,91.7,53.984,104.2
20.588,95.8,23.588,62.5,33.088,275,39.088,75,51.588,104.2,53.988,104.2
20.592,50,23.592,95.8,33.092,241.7,39.092,95.8,51.592,112.5,53.992,125
20.596,100,23.596,116.7,33.096,233.3,39.096,125,51.596,120.8,53.996,100
20.6,83.3,23.6,83.3,33.1,179.2,39.1,133.3,51.6,125,54,54.2
20.604,70.8,23.604,79.2,33.104,241.7,39.104,91.7,51.604,125,,
20.608,75,23.608,87.5,33.108,179.2,39.108,116.7,51.608,162.5,,
20.612,91.7,23.612,66.7,33.112,179.2,39.112,141.7,51.612,145.8,,
20.616,62.5,23.616,50,33.116,170.8,39.116,83.3,51.616,116.7,,
20.62,66.7,23.62,45.8,33.12,208.3,39.12,83.3,51.62,150,,
20.624,70.8,23.624,58.3,33.124,195.8,39.124,91.7,51.624,145.8,,
20.628,70.8,23.628,79.2,33.128,241.7,39.128,100,51.628,95.8,,
20.632,79.2,23.632,66.7,33.132,229.2,39.132,125,51.632,175,,
20.636,91.7,23.636,83.3,33.136,225,39.136,116.7,51.636,108.3,,
20.64,87.5,23.64,112.5,33.14,170.8,39.14,154.2,51.64,141.7,,
20.644,87.5,23.644,79.2,33.144,175,39.144,83.3,51.644,104.2,,
20.648,83.3,23.648,54.2,33.148,229.2,39.148,108.3,51.648,154.2,,
20.652,95.8,23.652,62.5,33.152,216.7,39.152,91.7,51.652,158.3,,
20.656,95.8,23.656,62.5,33.156,179.2,39.156,116.7,51.656,125,,
20.66,83.3,23.66,79.2,33.16,154.2,39.16,120.8,51.66,150,,
20.664,79.2,23.664,112.5,33.164,195.8,39.164,95.8,51.664,112.5,,
20.668,87.5,23.668,95.8,33.168,241.7,39.168,91.7,51.668,104.2,,
20.672,83.3,23.672,54.2,33.172,212.5,39.172,129.2,51.672,133.3,,
20.676,83.3,23.676,70.8,33.176,183.3,39.176,95.8,51.676,133.3,,
20.68,75,23.68,45.8,33.18,200,39.18,116.7,51.68,95.8,,
20.684,100,23.684,87.5,33.184,229.2,39.184,75,51.684,129.2,,
20.688,62.5,23.688,75,33.188,162.5,39.188,108.3,51.688,104.2,,
20.692,75,23.692,91.7,33.192,170.8,39.192,75,51.692,133.3,,
20.696,70.8,23.696,62.5,33.196,225,39.196,100,51.696,166.7,,
20.7,91.7,23.7,58.3,33.2,216.7,39.2,83.3,51.7,104.2,,
20.704,95.8,23.704,91.7,33.204,120.8,39.204,91.7,51.704,100,,
20.708,58.3,23.708,70.8,33.208,191.7,39.208,95.8,51.708,95.8,,
20.712,87.5,23.712,70.8,33.212,141.7,39.212,154.2,51.712,104.2,,
20.716,75,23.716,70.8,33.216,212.5,39.216,95.8,51.716,112.5,,
20.72,54.2,23.72,91.7,33.22,145.8,39.22,145.8,51.72,158.3,,
20.724,54.2,23.724,54.2,33.224,216.7,39.224,104.2,51.724,112.5,,
20.728,66.7,23.728,112.5,33.228,170.8,39.228,83.3,51.728,129.2,,
20.732,83.3,23.732,62.5,33.232,195.8,39.232,70.8,51.732,137.5,,
20.736,87.5,23.736,54.2,33.236,225,39.236,108.3,51.736,133.3,,
20.74,58.3,23.74,45.8,33.24,141.7,39.24,112.5,51.74,129.2,,
20.744,91.7,23.744,79.2,33.244,170.8,39.244,104.2,51.744,158.3,,
20.748,104.2,23.748,45.8,33.248,204.2,39.248,95.8,51.748,120.8,,
20.752,70.8,23.752,66.7,33.252,175,39.252,83.3,51.752,100,,
20.756,83.3,23.756,79.2,33.256,170.8,39.256,100,51.756,104.2,,
20.76,83.3,23.76,66.7,33.26,162.5,39.26,70.8,51.76,87.5,,
20.764,75,23.764,66.7,33.264,212.5,39.264,129.2,51.764,137.5,,
20.768,75,23.768,50,33.268,212.5,39.268,87.5,51.768,91.7,,
20.772,54.2,23.772,91.7,33.272,175,39.272,95.8,51.772,100,,
20.776,83.3,23.776,75,33.276,200,39.276,116.7,51.776,150,,
20.78,58.3,23.78,62.5,33.28,175,39.28,112.5,51.78,162.5,,
20.784,83.3,23.784,45.8,33.284,150,39.284,95.8,51.784,125,,
20.788,129.2,23.788,54.2,33.288,170.8,39.288,83.3,51.788,133.3,,
20.792,75,23.792,41.7,33.292,150,39.292,116.7,51.792,112.5,,
20.796,70.8,23.796,104.2,33.296,166.7,39.296,112.5,51.796,133.3,,
20.8,104.2,23.8,75,33.3,183.3,39.3,91.7,51.8,158.3,,
20.804,79.2,23.804,75,33.304,200,39.304,91.7,51.804,116.7,,
20.808,66.7,23.808,75,33.308,187.5,39.308,108.3,51.808,112.5,,
20.812,54.2,23.812,75,33.312,170.8,39.312,108.3,51.812,125,,
20.816,95.8,23.816,41.7,33.316,195.8,39.316,108.3,51.816,129.2,,
20.82,75,23.82,104.2,33.32,179.2,39.32,129.2,51.82,104.2,,
20.824,66.7,23.824,87.5,33.324,170.8,39.324,87.5,51.824,70.8,,
20.828,66.7,23.828,70.8,33.328,183.3,39.328,100,51.828,125,,
20.832,95.8,23.832,62.5,33.332,195.8,39.332,129.2,51.832,179.2,,
20.836,70.8,23.836,91.7,33.336,150,39.336,108.3,51.836,87.5,,
20.84,66.7,23.84,45.8,33.34,141.7,39.34,75,51.84,70.8,,
20.844,50,23.844,41.7,33.344,195.8,39.344,83.3,51.844,141.7,,
20.848,75,23.848,45.8,33.348,187.5,39.348,108.3,51.848,116.7,,
20.852,112.5,23.852,87.5,33.352,191.7,39.352,100,51.852,141.7,,
20.856,58.3,23.856,79.2,33.356,158.3,39.356,133.3,51.856,137.5,,
20.86,58.3,23.86,50,33.36,187.5,39.36,91.7,51.86,150,,
20.864,58.3,23.864,70.8,33.364,145.8,39.364,91.7,51.864,137.5,,
20.868,79.2,23.868,75,33.368,95.8,39.368,112.5,51.868,141.7,,
20.872,58.3,23.872,70.8,33.372,125,39.372,125,51.872,170.8,,
20.876,79.2,23.876,75,33.376,170.8,39.376,108.3,51.876,108.3,,
20.88,54.2,23.88,75,33.38,166.7,39.38,112.5,51.88,120.8,,
20.884,79.2,23.884,75,33.384,141.7,39.384,154.2,51.884,137.5,,
20.888,87.5,23.888,54.2,33.388,120.8,39.388,125,51.888,154.2,,
20.892,62.5,23.892,62.5,33.392,162.5,39.392,83.3,51.892,129.2,,
20.896,83.3,23.896,75,33.396,133.3,39.396,112.5,51.896,129.2,,
20.9,95.8,23.9,58.3,33.4,154.2,39.4,91.7,,,,
20.904,87.5,23.904,83.3,33.404,166.7,39.404,50,,,,
20.908,58.3,23.908,54.2,33.408,179.2,39.408,154.2,,,,
20.912,58.3,23.912,62.5,33.412,158.3,39.412,66.7,,,,
20.916,70.8,23.916,62.5,33.416,166.7,39.416,83.3,,,,
20.92,58.3,23.92,95.8,33.42,179.2,39.42,108.3,,,,
20.924,45.8,23.924,83.3,33.424,175,39.424,129.2,,,,
20.928,70.8,23.928,79.2,33.428,166.7,39.428,104.2,,,,
20.932,83.3,23.932,70.8,33.432,170.8,39.432,108.3,,,,
20.936,66.7,23.936,83.3,33.436,120.8,39.436,100,,,,
20.94,79.2,23.94,50,33.44,129.2,39.44,108.3,,,,
20.944,70.8,23.944,62.5,33.444,195.8,39.444,129.2,,,,
20.948,70.8,23.948,91.7,33.448,162.5,39.448,100,,,,
20.952,108.3,23.952,41.7,33.452,154.2,39.452,87.5,,,,
20.956,70.8,23.956,79.2,33.456,150,39.456,95.8,,,,
20.96,83.3,23.96,58.3,33.46,137.5,39.46,183.3,,,,
20.964,70.8,23.964,66.7,33.464,183.3,39.464,87.5,,,,
20.968,50,23.968,62.5,33.468,154.2,39.468,154.2,,,,
20.972,120.8,23.972,37.5,33.472,150,39.472,83.3,,,,
20.976,75,23.976,45.8,33.476,170.8,39.476,79.2,,,,
20.98,108.3,23.98,79.2,33.48,125,39.48,100,,,,
20.984,79.2,23.984,66.7,33.484,158.3,39.484,108.3,,,,
20.988,91.7,23.988,58.3,33.488,179.2,39.488,87.5,,,,
20.992,116.7,23.992,58.3,33.492,145.8,39.492,79.2,,,,
20.996,83.3,23.996,58.3,33.496,137.5,39.496,95.8,,,,
21,70.8,24,20.8,33.5,162.5,39.5,104.2,,,,
,,,,33.504,145.8,,,,,,
,,,,33.508,175,,,,,,
,,,,33.512,166.7,,,,,,
,,,,33.516,154.2,,,,,,
,,,,33.52,145.8,,,,,,
,,,,33.524,158.3,,,,,,
,,,,33.528,137.5,,,,,,
,,,,33.532,137.5,,,,,,
,,,,33.536,150,,,,,,
,,,,33.54,125,,,,,,
,,,,33.544,154.2,,,,,,
,,,,33.548,162.5,,,,,,
,,,,33.552,229.2,,,,,,
,,,,33.556,145.8,,,,,,
,,,,33.56,179.2,,,,,,
,,,,33.564,187.5,,,,,,
,,,,33.568,166.7,,,,,,
,,,,33.572,208.3,,,,,,
,,,,33.576,170.8,,,,,,
,,,,33.58,154.2,,,,,,
,,,,33.584,125,,,,,,
,,,,33.588,133.3,,,,,,
,,,,33.592,120.8,,,,,,
,,,,33.596,166.7,,,,,,
,,,,33.6,216.7,,,,,,
,,,,33.604,183.3,,,,,,
,,,,33.608,83.3,,,,,,
,,,,33.612,154.2,,,,,,
,,,,33.616,208.3,,,,,,
,,,,33.62,112.5,,,,,,
,,,,33.624,145.8,,,,,,
,,,,33.628,158.3,,,,,,
,,,,33.632,116.7,,,,,,
,,,,33.636,162.5,,,,,,
,,,,33.64,120.8,,,,,,
,,,,33.644,183.3,,,,,,
,,,,33.648,125,,,,,,
,,,,33.652,129.2,,,,,,
,,,,33.656,162.5,,,,,,
,,,,33.66,162.5,,,,,,
,,,,33.664,154.2,,,,,,
,,,,33.668,112.5,,,,,,
,,,,33.672,125,,,,,,
,,,,33.676,162.5,,,,,,
,,,,33.68,154.2,,,,,,
,,,,33.684,108.3,,,,,,
,,,,33.688,187.5,,,,,,
,,,,33.692,129.2,,,,,,
,,,,33.696,158.3,,,,,,
,,,,33.7,116.7,,,,,,
,,,,33.704,79.2,,,,,,
,,,,33.708,150,,,,,,
,,,,33.712,137.5,,,,,,
,,,,33.716,145.8,,,,,,
,,,,33.72,133.3,,,,,,
,,,,33.724,145.8,,,,,,
,,,,33.728,166.7,,,,,,
,,,,33.732,183.3,,,,,,
,,,,33.736,129.2,,,,,,
,,,,33.74,158.3,,,,,,
,,,,33.744,187.5,,,,,,
,,,,33.748,145.8,,,,,,
,,,,33.752,129.2,,,,,,
,,,,33.756,150,,,,,,
,,,,33.76,183.3,,,,,,
,,,,33.764,141.7,,,,,,
,,,,33.768,162.5,,,,,,
,,,,33.772,108.3,,,,,,
,,,,33.776,137.5,,,,,,
,,,,33.78,170.8,,,,,,
,,,,33.784,133.3,,,,,,
,,,,33.788,170.8,,,,,,
,,,,33.792,170.8,,,,,,
,,,,33.796,125,,,,,,
,,,,33.8,150,,,,,,
,,,,33.804,141.7,,,,,,
,,,,33.808,87.5,,,,,,
,,,,33.812,108.3,,,,,,
,,,,33.816,141.7,,,,,,
,,,,33.82,150,,,,,,
,,,,33.824,129.2,,,,,,
,,,,33.828,120.8,,,,,,
,,,,33.832,133.3,,,,,,
,,,,33.836,145.8,,,,,,
,,,,33.84,154.2,,,,,,
,,,,33.844,95.8,,,,,,
,,,,33.848,120.8,,,,,,
,,,,33.852,112.5,,,,,,
,,,,33.856,162.5,,,,,,
,,,,33.86,137.5,,,,,,
,,,,33.864,220.8,,,,,,
,,,,33.868,112.5,,,,,,
,,,,33.872,104.2,,,,,,
,,,,33.876,154.2,,,,,,
,,,,33.88,120.8,,,,,,
,,,,33.884,125,,,,,,
,,,,33.888,116.7,,,,,,
,,,,33.892,175,,,,,,
,,,,33.896,141.7,,,,,,
,,,,33.9,187.5,,,,,,
,,,,33.904,133.3,,,,,,
,,,,33.908,91.7,,,,,,
,,,,33.912,170.8,,,,,,
,,,,33.916,141.7,,,,,,
,,,,33.92,120.8,,,,,,
,,,,33.924,162.5,,,,,,
,,,,33.928,137.5,,,,,,
,,,,33.932,154.2,,,,,,
,,,,33.936,137.5,,,,,,
,,,,33.94,137.5,,,,,,
,,,,33.944,120.8,,,,,,
,,,,33.948,133.3,,,,,,
,,,,33.952,154.2,,,,,,
,,,,33.956,108.3,,,,,,
,,,,33.96,145.8,,,,,,
,,,,33.964,154.2,,,,,,
,,,,33.968,129.2,,,,,,
,,,,33.972,108.3,,,,,,
,,,,33.976,104.2,,,,,,
,,,,33.98,116.7,,,,,,
,,,,33.984,175,,,,,,
,,,,33.988,87.5,,,,,,
,,,,33.992,112.5,,,,,,
,,,,33.996,183.3,,,,,,
,,,,34,87.5,,,,,,